timestamp,acc_x,acc_y,acc_z,gyro_x,gyro_y,gyro_z,ori_azimuth,ori_pitch,ori_roll
4711273985000.0,0.6387406398413601,9.80490777044953,-0.4434385348552586,-1.1765264,0.74281216,0.033292156,35.054123,-67.15682,22.808317
4711278629000.0,0.640976211780176,9.806249093957504,-0.4412029631498786,-1.1765264,0.75716746,0.03268129,35.05305,-67.150444,22.813913
4711283715000.0,0.6434245577924108,9.807718080038804,-0.4387546173932974,-1.1869112,0.7620544,0.03573562,34.895596,-67.35983,22.57409
4711288657000.0,0.6458035837445273,9.8091454746935,-0.4363755916895964,-1.1866057,0.743423,0.03726278,34.74422,-67.55881,22.336422
4711293640000.0,0.6482023466582052,9.810584711351606,-0.4339768290263947,-1.1652255,0.7528914,0.03756821,34.58595,-67.746826,22.10156
4711298623000.0,0.6506011095718831,9.812023948009712,-0.431578066363193,-1.1795808,0.76052725,0.034208454,34.437393,-67.924,21.86884
4711304492000.0,0.6534263834110113,9.81371908747317,-0.4287527928190769,-1.1905763,0.732122,0.026572637,34.300514,-68.09322,21.63806
4711308651000.0,0.6554284815362345,9.814920328745709,-0.4267506949029109,-1.1496484,0.75747293,0.03970624,34.148033,-68.249954,21.413752
4711313633000.0,0.657826763060606,9.81635927657446,-0.4243524136289653,-1.1985176,0.7360926,0.03726278,34.022663,-68.399414,21.18663
4711318601000.0,0.6602183051346883,9.817794180792294,-0.4219608718046054,-1.1612549,0.70952,0.032375857,33.89453,-68.544136,20.964865
4711323929000.0,0.6627831473590663,9.819333063576638,-0.4193960298480453,-1.1194105,0.8005389,0.061086524,33.739887,-68.6699,20.752129
4711328718000.0,0.6650885207473071,9.820716267340568,-0.4170906567005293,-1.2632693,0.76174897,0.061086524,33.637337,-68.78739,20.53598
4711333661000.0,0.6674680280887298,9.822143950824616,-0.414711149607572,-1.2519683,0.7504479,0.061391957,33.501686,-68.90263,20.327818
4711338644000.0,0.6698667910024078,9.82358318748272,-0.4123123869443704,-1.2443326,0.73548174,0.069027774,33.382565,-68.99827,20.12513
4711343690000.0,0.6722958814423875,9.825040620389965,-0.4098832967580337,-1.2388347,0.7257079,0.08002335,33.268906,-69.08671,19.926031
4711348665000.0,0.6746907932416144,9.826477546413258,-0.407488385208881,-1.2412782,0.6957755,0.08735373,33.169388,-69.16763,19.731525
4711353643000.0,0.6770871492087605,9.827915338924605,-0.4050920294919599,-1.2525792,0.6786713,0.09743301,33.07201,-69.2385,19.543175
4711358644000.0,0.6794945771299531,9.829359774511037,-0.4026846018221482,-1.2541064,0.61941737,0.10140363,32.999714,-69.30428,19.359993
4711363718000.0,0.6819371464705114,9.83082529464012,-0.4002420327366405,-1.183246,0.54825157,0.100792766,32.939186,-69.369896,19.181807
4711368618000.0,0.68429595407176,9.832240558462056,-0.397883225381696,-1.0818423,0.46914452,0.101098195,32.901634,-69.43333,19.009827
4711374171000.0,0.686969108890073,9.833844427850469,-0.3952100708425111,-0.9419542,0.38973203,0.09865474,32.888176,-69.50611,18.842028
4711378768000.0,0.6891820555314893,9.835172176378926,-0.3929971244321683,-0.79901177,0.35277468,0.09712757,32.88763,-69.58755,18.67833
4711383709000.0,0.6915606000942993,9.836599282204272,-0.3906185801177233,-0.6808093,0.28710666,0.08552113,32.921436,-69.68315,18.517849
4711388648000.0,0.6939381818784967,9.838025810370914,-0.3882409985817905,-0.62949663,0.13041973,0.064751714,32.994972,-69.78828,18.36214
4711393674000.0,0.6963576445323488,9.839477466691129,-0.3858215361805761,-0.3200934,-0.076358154,0.005497787,33.078064,-69.972725,18.183105
4711398694000.0,0.6987742188503627,9.840927390035237,-0.3834049621148984,0.06383542,-0.08827003,0.012217305,33.147915,-70.15929,18.017115
4711403658000.0,0.7011638353672195,9.842361138935663,-0.3810153458475628,0.06536258,-0.05100725,0.016187929,33.266598,-70.35139,17.842096
4711408641000.0,0.7035625982808974,9.84380037559377,-0.3786165831843612,-0.0027488936,-0.041233405,0.011911872,33.39562,-70.577835,17.670065
4711413778000.0,0.7060354951477574,9.845284091971992,-0.3761436865757184,-0.003970624,-0.062002823,0.01740966,33.52074,-70.80529,17.503483
4711418729000.0,0.7084188536036312,9.84671408609085,-0.3737603283687123,0.0076358155,-0.04886922,0.01740966,33.632053,-71.02558,17.334358
4711423981000.0,0.7109471102407247,9.848231017844489,-0.3712320719956167,0.016187929,-0.040317107,0.026267206,33.74902,-71.23834,17.172268
4711428633000.0,0.7131865332939917,9.849574651987274,-0.3689926491761879,0.016493361,-0.03970624,0.01740966,33.86388,-71.45281,17.006962
4711433671000.0,0.7156117726195204,9.851029774259706,-0.3665674101039001,0.011911872,-0.027794369,0.021991149,33.970707,-71.65848,16.849274
4711438649000.0,0.7180081285866664,9.852467566771052,-0.364171054386979,0.0061086523,-0.04520403,0.018020526,34.085464,-71.865204,16.689798
4711443655000.0,0.720417963454391,9.85391344650424,-0.3617612197708868,0.011301007,-0.027488936,0.01985312,34.184658,-72.06649,16.533718
4711448651000.0,0.7228229844290519,9.855356437943913,-0.3593561990473557,0.009468411,-0.026572637,0.016187929,34.29307,-72.265465,16.378313
4711453649000.0,0.7252289681823254,9.856800007042288,-0.3569502155453124,-0.003970624,-0.02687807,0.029626964,34.394714,-72.45532,16.229904
4711458651000.0,0.7276368774928246,9.85824473145807,-0.3545423064862446,0.010079277,-0.026572637,0.029321533,34.49531,-72.64912,16.07872
4711463624000.0,0.7300308265134386,9.85968107982266,-0.3521483577156041,0.009468411,-0.0143553335,0.026267206,34.59092,-72.833755,15.932363
4711468616000.0,0.732433921930874,9.861122915944929,-0.3497452625490974,0.0027488936,-0.020463986,0.0290161,34.690506,-73.014435,15.790327
4711473672000.0,0.7348678262639174,9.862583237145689,-0.3473113584701996,0.005192355,-0.016493361,0.022296581,34.78276,-73.196,15.646229
4711478640000.0,0.7372593683379998,9.86401814136352,-0.3449198166458397,0.007330383,-0.01038471,0.027488936,34.874573,-73.36962,15.508628
4711483602000.0,0.7396480220762437,9.865451312605243,-0.3425311631570163,0.015882496,-0.013439035,0.023518313,34.967293,-73.54507,15.368896
4711489550000.0,0.7425113256705758,9.867169269587466,-0.3396678598616675,0.016187929,-0.016187929,0.028710667,35.056583,-73.712776,15.23527
4711493666000.0,0.7444927240556245,9.868358091197893,-0.3376864616835142,0.016493361,-0.015271631,0.0143553335,35.14527,-73.88437,15.0971365
4711498660000.0,0.7468967822516727,9.869800504978864,-0.3352824037384953,0.021991149,-0.02076942,0.025350908,35.234646,-74.04504,14.970158
4711503594000.0,0.749271957089338,9.87122558899875,-0.3329072291488431,0.014049901,-0.02076942,0.023823744,35.321808,-74.20837,14.837583
4711508625000.0,0.7516938266897221,9.87267868946572,-0.3304853598013481,0.013439035,-0.026267206,0.022602014,35.410763,-74.3667,14.71069
4711513714000.0,0.7541436168698761,9.874148542035076,-0.3280355698769986,0.01863139,-0.03268129,0.021380283,35.498928,-74.52208,14.585534
4711518612000.0,0.7565014616925119,9.87556322819831,-0.3256777253005665,0.02321288,-0.025045475,0.024740042,35.58337,-74.673325,14.463244
4711523621000.0,0.7589127407281556,9.877009974419552,-0.3232664465167059,0.01863139,-0.028405234,0.032070424,35.671745,-74.82036,14.344301
4711528632000.0,0.7613249825424121,9.878457298299496,-0.3208542049543332,0.015882496,-0.02443461,0.027794369,35.754818,-74.967186,14.2247095
4711533614000.0,0.7637232640667837,9.879896246128247,-0.3184559236803876,0.01160644,-0.025350908,0.023518313,35.83904,-75.10852,14.109431
4711538600000.0,0.7661234711483806,9.881336349274408,-0.3160557168494176,0.016798794,-0.013133603,0.025961773,35.9171,-75.24689,13.996471
4711543612000.0,0.7685361943519435,9.882783961983703,-0.3136429938977887,0.011911872,-0.02443461,0.036957346,36.001225,-75.37992,13.887334
4711548613000.0,0.7709436222731363,9.884228397570135,-0.3112355662279771,0.011911872,-0.027183503,0.031154128,36.07858,-75.51492,13.775622
4711553597000.0,0.7733428665761206,9.885667923057593,-0.3088363221755194,0.0106901415,-0.03145956,0.028405234,36.15836,-75.64286,13.670115
4711559604000.0,0.7762345721395288,9.887402920971544,-0.3059446169140599,0.015882496,-0.033292156,0.032986723,36.237186,-75.768234,13.566958
4711563642000.0,0.7781784221586803,9.88856921389256,-0.3040007670978832,0.013744468,-0.022296581,0.028099801,36.31275,-75.89357,13.46202
4711568594000.0,0.7805622620038605,9.889999496840773,-0.301616927501621,0.021991149,-0.018936822,0.032375857,36.389767,-76.013855,13.363053
4711573622000.0,0.7829826874363254,9.891451730819693,-0.2991965023218944,0.014660766,-0.028710667,0.028099801,36.466736,-76.13377,13.262142
4711578723000.0,0.7853121935741675,9.892869047734068,-0.2969511379001238,0.022907447,-0.02076942,0.0290161,36.536366,-76.25054,13.1653185
4711583623000.0,0.7855483293591176,9.893341329166793,-0.2981318173180157,0.018325957,-0.018325957,0.027794369,36.60966,-76.36493,13.068779
4711588602000.0,0.7857882722312128,9.893821224932823,-0.2993315321795839,0.01985312,-0.014660766,0.027183503,36.665833,-76.5037,12.952458
4711593629000.0,0.786030528270181,9.894305747129213,-0.3005428128803478,0.02565634,-0.016187929,0.028405234,36.722157,-76.63956,12.838348
4711598660000.0,0.7862729770730553,9.894790654861469,-0.3017550574010446,0.020463986,-0.0125227375,0.024129177,36.775356,-76.77366,12.724308
4711603647000.0,0.7865133054729628,9.895271321699225,-0.3029566999024788,0.029932396,-0.010995574,0.025350908,36.828876,-76.90482,12.61422
4711608642000.0,0.7867540194006823,9.895752759608708,-0.3041602700437789,0.034513887,-0.0015271631,0.02321288,36.87852,-77.034645,12.50372
4711613691000.0,0.786997335641134,9.896239402252348,-0.3053768517541741,0.03023783,-0.0027488936,0.024129177,36.93017,-77.160706,12.396554
4711618668000.0,0.7872371821312762,9.896719105250446,-0.3065760847057758,0.03634648,0.0012217305,0.024740042,36.97699,-77.28589,12.290411
4711623656000.0,0.7874775587221602,9.897199868472168,-0.3077779681621931,0.03940081,-0.009162978,0.026267206,37.02777,-77.407425,12.186983
4711628661000.0,0.7877187545596449,9.89768227022131,-0.3089839478533256,0.03573562,0.004276057,0.015577064,37.07006,-77.52956,12.0817175
4711633684000.0,0.7879608178347071,9.898166406881838,-0.3101942647341565,0.03573562,0.011911872,0.018325957,37.11626,-77.64548,11.982877
4711638664000.0,0.7882008088977789,9.898646399031833,-0.311394220550708,0.030848695,0.014660766,0.016493361,37.159676,-77.7625,11.881476
4711643642000.0,0.7884407035788976,9.899126198413896,-0.3125936944572929,0.01863139,0.0030543262,0.01740966,37.20449,-77.875,11.783656
4711648618000.0,0.7886805018780633,9.89960580502803,-0.3137926864539114,0.02076942,0.002443461,0.026267206,37.244736,-77.984,11.689273
4711653614000.0,0.7889212639967593,9.90008733932148,-0.3149964975501947,0.02443461,0.007330383,0.021380283,37.286465,-78.0935,11.593153
4711658634000.0,0.789163182698892,9.900571186830108,-0.3162060915660759,0.021685716,0.01160644,0.02321288,37.327847,-78.19611,11.503276
4711663722000.0,0.789408378387428,9.901061588448416,-0.3174320705208176,0.020463986,0.00580322,0.015577064,37.370495,-78.300804,11.4111395
4711668700000.0,0.7896482730685467,9.90154138783048,-0.3186315444274025,0.021380283,0.0012217305,0.020158553,37.410908,-78.399315,11.324687
4711673587000.0,0.789883782370802,9.902012416271653,-0.3198090914305124,0.029321533,0.00030543262,0.0143553335,37.451736,-78.501015,11.234853
4711678650000.0,0.790127773284925,9.902500408290813,-0.321029046510673,0.024740042,-0.020463986,0.013744468,37.499115,-78.59714,11.149808
4711683638000.0,0.7903681498758088,9.902981171512534,-0.3222309299670903,0.010079277,-0.023823744,0.01863139,37.541206,-78.69107,11.0661745
4711688695000.0,0.7906118516440728,9.903468585227902,-0.3234494393173515,0.012217305,-0.025961773,0.0125227375,37.588608,-78.786896,10.981096
4711693637000.0,0.7908500114500367,9.903944914787196,-0.3246402388445397,0.014660766,-0.022296581,0.007941248,37.63471,-78.878105,10.899409
4711698608000.0,0.7910895687943198,9.904424039481498,-0.3258380260662419,0.013439035,-0.020463986,0.0018325958,37.681507,-78.969406,10.817167
4711703623000.0,0.7913312465415698,9.904907405070295,-0.3270464153072069,0.005497787,-0.023823744,0.0070249503,37.72817,-79.056625,10.738452
4711708638000.0,0.7915729242888198,9.905390770659098,-0.3282548045481718,0.0036651916,-0.01863139,0.005497787,37.771473,-79.14577,10.657561
4711713651000.0,0.7918145056541167,9.905873943479968,-0.3294627118791703,0.010079277,-0.016493361,0.008857546,37.81603,-79.23022,10.581167
4711718793000.0,0.7920623036553848,9.906369549832432,-0.3307017024030071,-0.0070249503,-0.018020526,0.010995574,37.859715,-79.31227,10.50549
4711723638000.0,0.7922957889366263,9.906836530147036,-0.3318691292968208,-0.005192355,-0.019547688,0.0106901415,37.90231,-79.393616,10.431539
4711728631000.0,0.7925364064823928,9.907317775288588,-0.3330722175281543,-0.0033597588,-0.018020526,0.009468411,37.944008,-79.472046,10.359353
4711733659000.0,0.7927787107123375,9.907802393868945,-0.3342837391839015,0.00061086525,-0.024740042,0.015271631,37.988056,-79.54711,10.290591
4711738589000.0,0.7930162922265833,9.908277566820647,-0.3354716472512907,0.0015271631,-0.017715093,0.0143553335,38.0273,-79.62273,10.220803
4711743627000.0,0.7932590783662933,9.908763149240665,-0.3366855784568703,0.0033597588,-0.010995574,0.018020526,38.068047,-79.69407,10.155384
4711748624000.0,0.7934998886759659,9.909244779918078,-0.3378896305081368,0.003970624,-0.01985312,0.010079277,38.110954,-79.76738,10.087767
4711753606000.0,0.7937399761209907,9.909724964836006,-0.3390900682346547,0.0027488936,-0.020158553,0.0061086523,38.148945,-79.837036,10.023478
4711758703000.0,0.7939856055283153,9.910216233910006,-0.3403182157842456,0.002443461,-0.027183503,0.002443461,38.191105,-79.907394,9.9584255
4711763612000.0,0.7942221750320542,9.910689382798424,-0.3415010637969868,0.00061086525,-0.018936822,0.004276057,38.228477,-79.97569,9.894977
4711768750000.0,0.7944697802694162,9.911184603615029,-0.3427390905008907,-0.0009162979,-0.015271631,0.009162978,38.268784,-80.04267,9.832732
4711773595000.0,0.7947032655506576,9.91165158392963,-0.3439065173947043,0.003970624,-0.01740966,0.0067195175,38.308018,-80.10997,9.770136
4711783612000.0,0.8062777252679642,9.877786597269624,-0.2820498175629554,0.0061086523,-0.017104227,-0.0012217305,38.345093,-80.175865,9.70852
4711788612000.0,0.8168121462038881,9.853977271597913,-0.2316261393266951,0.0027488936,-0.006414085,-0.00061086525,38.37932,-80.23863,9.649782
4711793643000.0,0.8396575331398768,9.849408102607873,-0.1676590616311047,0.0125227375,-0.009162978,-0.0018325958,38.404873,-80.33711,9.560257
4711798866000.0,0.860871677529114,9.844176319831224,-0.1040437271831223,-0.0018325958,-0.013744468,0.005192355,38.41529,-80.452095,9.453906
4711803601000.0,0.845564944921519,9.832696442194091,-0.0849103154194092,0.008552114,-0.0027488936,0.015271631,38.421658,-80.56576,9.349682
4711808673000.0,0.8291687996658228,9.820399517299576,-0.0644151381299578,0.0061086523,-0.004276057,0.0036651916,38.42851,-80.67776,9.24432
4711813738000.0,0.817063006741573,9.806413606741572,-0.0541896606382022,0.003970624,-0.0033597588,0.002443461,38.430977,-80.78286,9.145927
4711818679000.0,0.8073962102553626,9.791913613891726,-0.0493562583575076,0.005192355,-0.01282817,0.008246681,38.43656,-80.88775,9.047556
4711823596000.0,0.7956529099578135,9.787497,-0.0244203832948568,-0.0021380284,-0.017715093,0.0018325958,38.439606,-80.99726,8.943254
4711828664000.0,0.7825835746665469,9.787497,0.0104312496587379,-0.0106901415,-0.01863139,0.00030543262,38.44377,-81.102425,8.843155
4711833625000.0,0.7721826812274079,9.798112953088602,0.0074982034364205,-0.005192355,-0.021380283,0.0061086523,38.448494,-81.20746,8.743045
4711838617000.0,0.7645021229175034,9.821154186922644,-0.0385849379050526,0.0027488936,-0.013744468,0.011911872,38.45006,-81.31146,8.643551
4711844029000.0,0.757011717590909,9.845623036818182,-0.0881893301181818,0.0027488936,-0.023518313,0.007330383,38.45514,-81.419586,8.539138
4711848631000.0,0.7650249291727272,9.857643042454546,-0.1242486190745454,-0.004581489,-0.02076942,0.011301007,38.453865,-81.52243,8.439835
4711853571000.0,0.7736266817181818,9.870545873363636,-0.1629563303836363,-0.0030543262,-0.026267206,0.014049901,38.4558,-81.63542,8.331956
4711858641000.0,0.7757214,9.883927530875576,-0.2338206033953917,0.0018325958,-0.025350908,0.018325957,38.454502,-81.745285,8.226751
4711863611000.0,0.7757214,9.897087724423963,-0.3127829190082949,0.009162978,-0.018325957,0.017104227,38.452477,-81.85455,8.121893
4711868606000.0,0.783699231596983,9.90773667287457,-0.381995003164168,0.006414085,-0.025350908,0.014660766,38.449417,-81.97306,8.008709
4711873592000.0,0.7970384228587392,9.91662966514573,-0.4442447001247789,0.009773844,-0.0143553335,0.019547688,38.438404,-82.088196,7.8984103
4711878614000.0,0.8214999118821669,9.919440937623566,-0.4980195219800316,0.013439035,-0.014660766,0.0125227375,38.425877,-82.2288,7.763663
4711883655000.0,0.8596783808461843,9.914668531830763,-0.5409703020561487,0.02687807,-0.0143553335,0.018325957,38.40897,-82.36142,7.635349
4711888607000.0,0.9032748335644938,9.922089823855757,-0.5791643597226075,0.017715093,-0.016187929,0.014049901,38.3757,-82.531105,7.4686503
4711893682000.0,0.9562395024271844,9.946164650485438,-0.6128691320873787,0.018936822,-0.014049901,0.016493361,38.33963,-97.30817,7.3073907
4711898611000.0,1.0008273533080088,9.97429521029862,-0.6279503087780943,0.022296581,-0.0067195175,0.01038471,38.271717,-97.0928,7.084571
4711903599000.0,1.0361110979107313,10.00957884963596,-0.6178692591927826,0.02687807,-0.011911872,0.004276057,38.204205,-96.88922,6.8651695
4711908575000.0,1.082503050986955,10.049744758024374,-0.5983885166735324,0.026572637,-0.01985312,-0.003970624,38.076626,-96.59154,6.5244536
4711913641000.0,1.1407956591057329,10.095545928381394,-0.5692422169618949,0.026267206,-0.015271631,-0.00030543262,37.942066,-96.3252,6.190706
4711918624000.0,1.2009470972256533,10.136455683895486,-0.5274213768437055,0.03573562,-0.019242255,-0.008857546,37.68904,-95.90835,5.5896177
4711923597000.0,1.2733468425653207,10.159080589548694,-0.4278717163705463,0.043676864,-0.029321533,-0.014049901,37.426147,-95.60327,5.0033865
4711928626000.0,1.3437814471567269,10.176107078363383,-0.3223173303606103,0.03634648,-0.036651913,-0.0106901415,36.97228,-95.341194,4.026003
4711933604000.0,1.3815649307311275,10.125729198897034,-0.1617374100977478,0.021991149,-0.04337143,-0.018020526,36.50069,-95.43526,3.0748575
4711938734000.0,1.4205021084604716,10.073813063569116,0.003745713837263,0.01282817,-0.04795292,-0.017715093,36.061787,-95.7886,2.2653818
4711943718000.0,1.4553996783300525,10.02636665378937,0.1601020283973097,0.0061086523,-0.04795292,-0.01160644,35.60903,-96.331566,1.4795939
4711948630000.0,1.451541349064961,10.018649954970472,0.2565613357332677,-0.0009162979,-0.052534413,-0.003970624,35.145294,-97.008125,0.71748406
4711953970000.0,1.447346829872047,10.010260872785434,0.3614254849950787,-0.021991149,-0.064446285,0.009162978,34.74928,-97.590836,0.12359236
4711958653000.0,1.4106301040618956,10.024132795799945,0.4062905347167725,-0.051618114,-0.07971791,0.015882496,34.347176,-98.20963,-0.4548493
4711963739000.0,1.3523083419729207,10.051050604218478,0.4287219730256977,-0.07727446,-0.083383106,0.022296581,33.93765,-98.85113,-1.0146827
4711968597000.0,1.3050347806982112,10.07727092152337,0.4495683461771494,-0.08399397,-0.09437868,0.014049901,33.54355,-99.438545,-1.5290614
4711973594000.0,1.267065329940854,10.104884897143682,0.4702789540428448,-0.09193522,-0.116675265,0.0018325958,33.147457,-100.03015,-2.0305896
4711978641000.0,1.2287159567224466,10.13277517830352,0.4911967923254472,-0.1001819,-0.15454891,0.0012217305,32.73942,-100.66208,-2.5570462
4711983627000.0,1.1499313989754734,10.241322893925284,0.6505370269533272,-0.10170906,-0.18203785,-0.016798794,32.327076,-101.30147,-3.0787532
4711988632000.0,1.0507242499534306,10.390133980026906,0.8787133868312118,-0.095294975,-0.20250183,-0.027794369,31.917885,-101.9432,-3.5869448
4711993630000.0,0.9907788613932348,10.450740943186783,0.9446978701992832,-0.09987647,-0.19608775,-0.047036625,31.480328,-102.627556,-4.130116
4711998615000.0,0.9448786710908138,10.479950315619265,0.953043377169828,-0.14049901,-0.1337795,-0.07238753,31.026167,-103.30478,-4.661041
4712003608000.0,0.8981203338903864,10.460050647798742,0.9491794504492364,-0.16707164,-0.081855945,-0.09407325,30.585823,-103.921524,-5.180108
4712008652000.0,0.8498968891504443,10.37807066736548,0.9298900655036438,-0.19792034,-0.03940081,-0.12736541,30.124054,-104.52857,-5.6911297
4712013641000.0,0.82360536,10.295679371813652,0.8795837259400332,-0.2098322,-0.009773844,-0.15607607,29.626465,-105.15566,-6.2151103
4712018611000.0,0.82360536,10.21200484207442,0.7912608458247876,-0.21563543,-0.025045475,-0.19761491,29.12158,-105.778404,-6.735872
4712024224000.0,0.8603771377893396,10.16361833340412,0.7479203386812486,-0.22021692,-0.020463986,-0.24984388,28.570343,-106.44642,-7.2816267
4712028681000.0,0.9238273172733064,10.168150105754936,0.766048989785517,-0.21960606,-0.029932396,-0.27305678,28.020998,-107.110855,-7.815629
4712033623000.0,1.006156913664246,10.16710552436015,0.7670649216526828,-0.23609942,-0.035124753,-0.29565877,27.445082,-107.80796,-8.35856
4712038607000.0,1.1003868079320314,10.160375033490798,0.7502381322287246,-0.2770274,-0.03604105,-0.31215215,26.863008,-108.494644,-8.889047
4712043659000.0,1.195902342811817,10.15355271409434,0.7331817638158359,-0.33444872,-0.026572637,-0.31612277,26.295708,-109.13167,-9.375129
4712048598000.0,1.2988828370124557,10.130960456132376,0.6314092442931176,-0.40866885,-0.010995574,-0.30818152,25.720663,-109.74796,-9.845925
4712053613000.0,1.4080465611237387,10.100394443767616,0.4873130883425766,-0.49296826,0.01863139,-0.30390546,25.132511,-110.34163,-10.300815
4712058658000.0,1.5074137648835204,10.037776702425464,0.3541068068986674,-0.573297,0.056199603,-0.2959642,24.563168,-110.84346,-10.68178
4712063652000.0,1.5945295490077651,9.941491271690154,0.2348957227993481,-0.59895337,0.05222898,-0.2947425,23.990969,-111.33267,-11.050895
4712068593000.0,1.6472107,9.754712858628036,0.1643734262462718,-0.6001751,0.01863139,-0.2947425,23.426233,-111.78065,-11.365061
4712073666000.0,1.6472107,9.415230811163187,0.1685134438346825,-0.59437186,-0.029626964,-0.29138273,22.860432,-112.21802,-11.667902
4712078864000.0,1.630357070526909,9.082345588052972,0.1637501715844839,-0.5839872,-0.06414085,-0.29138273,22.28627,-112.66993,-11.949366
4712083649000.0,1.4538918253874331,8.918792697097773,0.0733655169493754,-0.5873469,-0.055283304,-0.2883284,21.70724,-113.113205,-12.21841
4712088664000.0,1.2689444472527474,8.74737832967033,-0.0213636456410256,-0.6010914,-0.053145275,-0.2855795,21.140005,-113.55437,-12.482441
4712093965000.0,1.0265049702679712,8.638024267715865,-0.2407831720697575,-0.6026186,0.00580322,-0.29229903,20.547546,-113.99393,-12.731596
4712098600000.0,0.8112651123351765,8.547397104381115,-0.4409184817507443,-0.59864795,0.093462385,-0.29168814,19.941298,-114.42508,-12.964651
4712103648000.0,0.5714296614153069,8.46989156585234,-0.6563984754439737,-0.57818395,0.18936823,-0.29565877,19.172562,-115.09369,-13.3079605
4712108638000.0,0.3301835703488686,8.409580175786532,-0.8674887905075273,-0.52656585,0.28588495,-0.3155119,18.370659,-115.762215,-13.628738
4712113661000.0,0.1371738190170341,8.391255095516772,-1.0090855676350716,-0.46517387,0.3494149,-0.3390302,17.379787,-116.70685,-14.063668
4712118591000.0,0.0384933779448218,8.45046300961438,-1.018953604838541,-0.3885103,0.3912592,-0.35033122,16.36003,-117.64807,-14.464332
4712123598000.0,-0.002405137978805,8.509243244609904,-0.9465587508048602,-0.2910773,0.38362336,-0.35308012,15.577002,-118.28909,-14.732717
4712128697000.0,0.0377455339685729,8.567238663164627,-0.7591889617376211,-0.18661933,0.38728857,-0.3585779,14.770937,-118.94293,-14.983579
4712133574000.0,0.0964084348285592,8.628498330568618,-0.6092282060615648,-0.1001819,0.3313944,-0.35705075,14.010927,-119.5609,-15.221889
4712138650000.0,0.2252641857272338,8.711630797263789,-0.5510352927413424,-0.03023783,0.28038713,-0.34147367,13.243881,-120.18912,-15.443161
4712144399000.0,0.3690800132844496,8.80255967647322,-0.4894002655101493,0.047036625,0.25686884,-0.32528573,12.399623,-120.91608,-15.692357
4712148670000.0,0.4458888630331753,8.82450512322275,-0.5040305315165877,0.10415252,0.2452624,-0.3005457,11.565095,-121.63748,-15.922895
4712153626000.0,0.5350166221890369,8.849970268174909,-0.5210072578869713,0.13897185,0.24709499,-0.29046643,10.612547,-122.478546,-16.16412
4712159076000.0,0.6092522508689525,8.861947656834195,-0.5845513940535463,0.18967366,0.26511553,-0.27122417,9.662201,-123.312164,-16.373644
4712163634000.0,0.6625602981211837,8.866048358196338,-0.6542619042085487,0.23273966,0.27397305,-0.2666427,8.712301,-124.132965,-16.56331
4712168601000.0,0.7353578240073371,8.961611728096678,-0.801349753085887,0.25442538,0.30634892,-0.25992316,7.630534,-125.06615,-16.747458
4712173648000.0,0.822277223881456,9.138927628398791,-1.0134331011221407,0.2950479,0.36651915,-0.25289822,6.5428753,-125.987495,-16.897627
4712178594000.0,0.907457202438498,9.312695102719031,-1.221272260897713,0.32925636,0.4071417,-0.25320363,5.4077616,-126.93335,-17.021103
4712183661000.0,0.98149886048428,9.511095594320487,-1.2922618835953348,0.35308012,0.43554693,-0.2434298,4.268492,-127.85564,-17.104918
4712188658000.0,1.050256495098039,9.71332374509804,-1.3165293039215686,0.39858958,0.45204028,-0.22876903,3.1288023,-128.76286,-17.155716
4712193599000.0,1.1309953445239938,9.963800625580497,-1.2152417899284056,0.43066,0.45142943,-0.22052236,2.000876,-129.62566,-17.138344
4712198620000.0,1.233343785487616,10.298759035990711,-0.9128487130611456,0.4352415,0.4156938,-0.18295415,0.8913524,-130.45908,-17.08989
4712203604000.0,1.3195816785079009,10.603999606510664,-0.5781874056627234,0.43890667,0.31978795,-0.15577064,359.75266,-131.30783,-17.019215
4712209485000.0,1.3828038249978414,10.895793894395991,-0.0967264853380537,0.3885103,0.21563543,-0.1301143,358.63934,-132.1083,-16.924746
4712213928000.0,1.4209371591594115,11.092155403302312,0.2347694915160012,0.3313944,0.08368854,-0.10934488,357.56024,-132.82722,-16.812685
4712218606000.0,1.3375502011407985,10.989939066946864,0.1702118632425698,0.2556471,0.09162979,-0.10476339,356.4843,-133.49811,-16.67077
4712223594000.0,1.2486373865625937,10.880949095646953,0.101376153574362,0.22449298,0.17104226,-0.017104227,355.67328,-133.81784,-16.471087
4712228588000.0,1.1596176199219452,10.771828021735214,0.0324576423307715,0.18692477,0.19822577,0.05681047,354.8734,-134.10504,-16.2707
4712233612000.0,0.8451693045864661,10.714339387613771,0.0223332505785516,0.12705997,0.204029,0.10751228,354.07587,-134.3588,-16.035576
4712238644000.0,0.4192673195238096,10.682555845864664,0.0414034894636591,0.09040806,0.21319197,0.14813483,353.28662,-134.5901,-15.772031
4712243600000.0,-0.0002021236340852,10.651252341709538,0.0601857040730774,0.03726278,0.20738874,0.16890424,352.3884,-134.93948,-15.529032
4712248657000.0,-0.2616814954139073,10.620853340231788,0.132109200115894,-0.010995574,0.21227567,0.17623462,351.49747,-135.26039,-15.265359
4712253657000.0,-0.4285829811232137,10.59164564591321,0.2322500897987103,-0.07422013,0.17959438,0.15424347,350.61993,-135.54767,-15.001611
4712258641000.0,-0.5740004837281554,10.565255121209857,0.2692348730007468,-0.14905111,0.1591304,0.14172074,349.81125,-135.78883,-14.817428
4712263919000.0,-0.6872485312621359,10.5426054454817,0.1861862879910381,-0.17470746,0.12217305,0.10567969,349.00815,-136.01697,-14.64249
4712268577000.0,-0.7871934735533981,10.52261639858103,0.1128933154682598,-0.23457226,0.14477506,0.09162979,348.27032,-136.14297,-14.48071
4712273648000.0,-0.8918120086196769,10.467885886380325,0.0328121646916299,-0.24312437,0.2003638,0.077579886,347.52817,-136.26964,-14.318381
4712278674000.0,-0.9934144437004404,10.397205916299558,-0.046702753215859,-0.22724187,0.28191432,0.052534413,346.77255,-136.37965,-14.142811
4712283609000.0,-1.1966596176611672,10.317966350170796,-0.0505408158790609,-0.20616703,0.3839288,0.05681047,346.09793,-136.41187,-13.961694
4712288647000.0,-1.5122578209317536,10.226793526128352,0.0230987648840758,-0.16615535,0.48197266,0.06414085,345.4018,-136.44902,-13.762815
4712293921000.0,-1.842639901926012,10.13134980361945,0.1001879171160694,-0.12003502,0.5717699,0.04795292,344.7436,-136.44669,-13.563619
4712298628000.0,-1.9504952389902912,10.130304399611653,0.1355573738990291,-0.13316862,0.6750061,0.028405234,344.06088,-136.4332,-13.33608
4712303674000.0,-2.01148736776699,10.153762910679612,0.163707606776699,-0.1740966,0.71959925,0.0018325958,343.36505,-136.42067,-13.101988
4712308657000.0,-2.173355998692573,10.158011252224442,0.1217108308621754,-0.1908954,0.7861836,-0.018936822,342.73523,-136.3544,-12.918407
4712313834000.0,-2.3894262770564736,10.153509697021972,0.0451859374355365,-0.1957823,0.8194757,-0.0571159,342.09106,-136.28006,-12.737373
4712318604000.0,-2.51579495548618,10.158301684458996,0.0199068953517094,-0.16737708,0.8356637,-0.11759156,341.43542,-136.20294,-12.560072
4712323588000.0,-2.570311293200335,10.17283926825554,0.0417134012157161,-0.11148291,0.8552113,-0.18784106,340.75934,-136.1318,-12.38094
4712328658000.0,-2.6257683221350794,10.18762770121069,0.0638961830637326,-0.06627888,0.89888823,-0.24037547,340.1235,-136.03307,-12.2392435
4712333633000.0,-2.5783685631880733,10.1089672603211,0.1477925316972477,-0.052839845,0.93645644,-0.30024028,339.46597,-135.94394,-12.106537
4712339154000.0,-2.50472787793822,10.0027164028514,0.2519272524511058,-0.034513887,0.9459248,-0.35888332,338.79208,-135.86877,-11.976824
4712343639000.0,-2.3987414911259366,9.881028294187535,0.3225848696188996,-0.0012217305,0.93554014,-0.3817908,338.12085,-135.79095,-11.855357
4712349210000.0,-2.2670915109851943,9.729874569914092,0.4103515552915372,0.048563786,0.9025534,-0.40286562,337.4116,-135.745,-11.733601
4712353659000.0,-2.141320977568198,9.60165345360511,0.4395842653361728,0.10415252,0.9071349,-0.4025602,336.69452,-135.70468,-11.60143
4712358653000.0,-1.995818779535544,9.456151356860358,0.4638346249224216,0.15363261,0.93218035,-0.40103304,335.97437,-135.6726,-11.47044
4712363644000.0,-1.8695965880599448,9.357117471412282,0.4571798041619156,0.17562376,0.95478237,-0.3894266,335.22485,-135.67056,-11.309326
4712368578000.0,-1.7502928859912037,9.272450224303633,0.4417857804218928,0.17867808,1.0009027,-0.3744604,334.4652,-135.66948,-11.131905
4712373597000.0,-1.6387780548567177,9.200474186453294,0.4337149359545962,0.1872302,1.0115929,-0.3594942,333.68576,-135.69814,-10.922535
4712378648000.0,-1.5487660204131,9.159968907238556,0.4427161440984369,0.1908954,1.0054842,-0.33383787,332.90482,-135.71582,-10.696841
4712383662000.0,-1.4575464134738507,9.149342128767714,0.4358077557895115,0.18997909,0.9819659,-0.29352075,332.09598,-135.75473,-10.434088
4712388595000.0,-1.358990282914898,9.278484811092726,0.3542440270261132,0.20280726,0.9450085,-0.24709499,331.29745,-135.78658,-10.164074
4712393606000.0,-1.258875794726998,9.409669481907777,0.2713906224379541,0.21533,0.90285885,-0.2049453,330.47156,-135.84006,-9.862857
4712398672000.0,-1.212828523294509,9.56728812250416,0.2006070085648918,0.22113322,0.8405506,-0.15424347,329.66904,-135.88089,-9.557969
4712403674000.0,-1.2526813965058237,9.761570775374375,0.1507908858402662,0.21868975,0.7834347,-0.12736541,328.8781,-135.91135,-9.253248
4712408637000.0,-1.2820350280703068,9.905709553477935,0.0596047014001495,0.2180789,0.6924158,-0.096516706,328.11896,-135.91606,-8.920253
4712413620000.0,-1.2998814357217652,9.994941405385193,-0.0795970844771877,0.20219639,0.61819565,-0.0870483,327.3684,-135.90619,-8.592174
4712418936000.0,-1.3189204690501122,10.090136373223634,-0.2281013376828721,0.20066923,0.5870415,-0.07971791,326.6405,-135.8659,-8.270469
4712423641000.0,-1.3215994,10.14301359804126,-0.3042726443623672,0.2171626,0.5589417,-0.07513642,325.927,-135.81818,-7.9602404
4712428607000.0,-1.3215994,10.192563909356116,-0.3736431267691186,0.25045475,0.535118,-0.083383106,325.21634,-135.76752,-7.6551147
4712433624000.0,-1.2852439866912764,10.211417288323297,-0.2659270993277637,0.28863382,0.49541172,-0.08307768,324.5544,-135.6929,-7.3652844
4712438633000.0,-1.2433038058383523,10.225397137750145,-0.1307865857839518,0.3032946,0.43218717,-0.09285152,323.89606,-135.61597,-7.0878825
4712443650000.0,-1.1282839495631916,10.23452150320326,0.0472258674898078,0.32528573,0.39461896,-0.09743301,323.25275,-135.5421,-6.809623
4712448658000.0,-0.9966006541808804,10.242502469340211,0.2347747883118396,0.30757064,0.37140608,-0.08674286,322.6181,-135.45544,-6.539433
4712453511000.0,-0.8740367440986411,10.2332331434952,0.4493882190896132,0.2910773,0.36377025,-0.082161374,321.9319,-135.39993,-6.2419605
4712458561000.0,-0.754542816749026,10.196465515442364,0.7251434666901073,0.28160888,0.36010507,-0.08857546,321.24802,-135.33449,-5.9478955
4712463503000.0,-0.6818281451543277,10.143370372652708,0.943708218373624,0.24740042,0.37751472,-0.06627888,320.4537,-135.31783,-5.560874
4712468497000.0,-0.7231202143967193,10.045301815993955,1.0314539463576515,0.22510384,0.42730024,-0.05681047,319.65076,-135.29166,-5.172456
4712473467000.0,-0.8160714608884931,9.907686294548332,1.030862216622143,0.1957823,0.48288897,-0.043676864,318.68607,-135.35828,-4.668601
4712478507000.0,-0.9832178972197486,9.711886757593748,0.9066963038883942,0.16890424,0.54611355,-0.03970624,317.71722,-135.40009,-4.156414
4712483469000.0,-1.0838948879268182,9.57880412073182,0.8005841114754099,0.14477506,0.591623,-0.029626964,316.79153,-135.38614,-3.6624205
4712488494000.0,-1.088253498559913,9.53521801440087,0.7177704639344262,0.14019357,0.6282749,-0.026572637,315.85834,-135.3547,-3.1619117
4712493495000.0,-1.0877618647033347,9.50518566912083,0.6242624638090083,0.13927728,0.6533204,-0.020463986,314.9592,-135.32999,-2.6975617
4712498494000.0,-1.067028030489389,9.531102961888262,0.4843089637895192,0.13255776,0.66981375,-0.01282817,314.05807,-135.28775,-2.2304304
4712503505000.0,-1.0339623611333464,9.582178087856306,0.3569239632731354,0.13316862,0.66920286,-0.0067195175,313.21368,-135.21173,-1.7889444
4712508556000.0,-0.9772979957243264,9.681340203436156,0.2530393549902382,0.13652839,0.67103547,0.010079277,312.3693,-135.12294,-1.3439689
4712513603000.0,-0.9162901888129986,9.777355798988127,0.1463803468377116,0.1386664,0.6420194,0.023823744,311.56415,-135.0134,-0.91946304
4712518545000.0,-0.8472175502296166,9.864848143802297,0.0358641087559836,0.1386664,0.59223384,0.042760566,310.76593,-134.89462,-0.49880645
4712523529000.0,-0.7930264520665212,9.947785648854962,-0.0635964704329334,0.14721853,0.5571091,0.06414085,309.97714,-134.76285,-0.0775073
4712528571000.0,-0.7855040731959807,10.015487007633588,-0.1275368373246611,0.12980886,0.51893,0.08032878,309.19992,-134.61572,0.33089206
4712534098000.0,-0.7772581017526095,10.08970069465649,-0.1976277551768188,0.12186762,0.49357912,0.087964594,308.43292,-134.4657,0.74375165
4712538546000.0,-0.7142465781175431,10.150540960671677,-0.2432352383848873,0.111177474,0.47586402,0.09865474,307.67377,-134.30325,1.1486225
4712543523000.0,-0.6247321870967741,10.218992854838708,-0.290625202016129,0.07880162,0.46731192,0.1020145,306.91577,-134.12581,1.5444397
4712548551000.0,-0.4806241897012067,10.228029,-0.300889849036583,0.050701816,0.45631635,0.116980694,306.17886,-133.92995,1.9290848
4712553533000.0,-0.32984038613484,10.228029,-0.3054590520245163,0.04428773,0.44073927,0.12583824,305.44128,-133.72604,2.3045225
4712558577000.0,-0.2474157390764925,10.25629544402985,-0.2993913491884328,0.01282817,0.41722095,0.14813483,304.68878,-133.52312,2.7111592
4712563656000.0,-0.183892562891791,10.29259513283582,-0.2903166070261194,-0.0076358155,0.38240165,0.15332718,303.93768,-133.31636,3.1034179
4712568617000.0,-0.1204341473376435,10.304645,-0.2691449554762135,-0.028405234,0.33964106,0.15454891,303.1624,-133.11975,3.5322168
4712573556000.0,-0.0565339343973752,10.304645,-0.2417591512920968,-0.054367006,0.3222314,0.17287487,302.39163,-132.91144,3.954773
4712578593000.0,-0.0371370515055724,10.301842440324217,-0.269074308976697,-0.070249505,0.2828306,0.1704314,301.56595,-132.73212,4.3954635
4712583570000.0,-0.0516245186119554,10.297012682877408,-0.3366824921681864,-0.07727446,0.27305678,0.172264,300.7422,-132.54205,4.832231
4712588555000.0,-0.0545442444108329,10.26298441440981,-0.3843348242514052,-0.09285152,0.27855456,0.18020524,299.91013,-132.3507,5.282554
4712593588000.0,-0.0496183297798671,10.208799295861011,-0.4188162184384262,-0.09010262,0.29840767,0.18784106,299.07782,-132.15631,5.722254
4712598572000.0,-0.0620516361621223,10.164220388725129,-0.405454611798084,-0.09315695,0.33017266,0.20586158,298.2498,-131.96487,6.1599317
4712604514000.0,-0.0882608216949152,10.117043995762712,-0.3582780765254237,-0.092240654,0.3491095,0.22602014,297.42255,-131.7697,6.589029
4712608673000.0,-0.1111358117880201,10.088163173353236,-0.3315926865870498,-0.07819075,0.3707952,0.24190263,296.60202,-131.57993,7.0144696
4712613632000.0,-0.1421527679462586,10.057146058033217,-0.3050067278671394,-0.061086524,0.38820487,0.25778514,295.78238,-131.38666,7.434838
4712618657000.0,-0.192835634514086,10.09054693542986,-0.2272443697175511,-0.04428773,0.38087448,0.28008172,294.98752,-131.1798,7.8362603
4712623630000.0,-0.2795093227778991,10.246559832059402,-0.053896989569775,-0.008857546,0.3848451,0.30207285,294.18915,-130.97906,8.234889
4712628656000.0,-0.3671067402751692,10.404235444056198,0.1212978490834971,0.013744468,0.37782016,0.32253686,293.3841,-130.78381,8.623932
4712633682000.0,-0.4575266873084299,10.489089381389144,0.2612632350854665,0.028710667,0.3567453,0.33505958,292.58456,-130.59189,9.002563
4712638661000.0,-0.5489722932827482,10.5248723371967,0.3765642168923538,0.03145956,0.31948254,0.3484986,291.79504,-130.39906,9.370097
4712643686000.0,-0.637771352523416,10.539260925068872,0.4962263181597796,0.03481932,0.28985557,0.36957347,291.01205,-130.13539,9.707384
4712648680000.0,-0.7124317625840221,10.468992731129475,0.6279799522203856,0.036957346,0.2742785,0.3830125,290.23547,-129.86992,10.031547
4712653877000.0,-0.7927757365622032,10.392935395234396,0.7600394271432271,0.037873644,0.20769419,0.39614612,289.47946,-129.57588,10.323212
4712659614000.0,-0.9255893568945868,10.260121096348096,0.8217028903651904,0.033292156,0.1777618,0.40775254,288.72098,-129.28021,10.611881
4712663587000.0,-1.017565740645774,10.168144242683242,0.8644062090650091,0.015882496,0.15974127,0.41233405,287.99667,-128.95607,10.871105
4712668608000.0,-1.1211385869349189,10.088939657367437,0.8783586107843936,0.014966198,0.1432479,0.4279111,287.2825,-128.63673,11.122231
4712674584000.0,-1.2376796894192392,10.014353560112406,0.8736969705791316,0.016493361,0.15363261,0.45448375,286.5686,-128.31458,11.370252
4712678617000.0,-1.307581449685305,9.996897593177051,0.8536242848764024,0.016187929,0.1600467,0.45723262,285.8473,-128.00427,11.599359
4712683632000.0,-1.368913897874669,10.071372607543555,0.7791491790203412,0.018936822,0.18020524,0.47555858,285.12756,-127.69789,11.833924
4712688707000.0,-1.4189202039717084,10.151294977693144,0.7069642527747552,0.021380283,0.21930063,0.49296826,284.3916,-127.413315,12.069634
4712693636000.0,-1.2990693878400434,10.292547835418931,0.681281963764962,0.037873644,0.25411993,0.49938235,283.65332,-127.131454,12.300892
4712698583000.0,-1.1787808937431992,10.43431652829162,0.6555058867247008,0.061086524,0.29535335,0.5170974,282.90012,-126.867424,12.542127
4712703609000.0,-1.0575174460012575,10.584468126403737,0.6222868333393227,0.086437434,0.3323107,0.5320636,282.14093,-126.60546,12.779766
4712708640000.0,-0.936318509091726,10.735966718443985,0.5876585385320277,0.118507855,0.36713,0.54275376,281.3755,-126.349495,13.017248
4712713652000.0,-0.9015899789325018,10.905267005502568,0.511663559699193,0.1432479,0.38453966,0.5549711,280.58255,-126.10392,13.282712
4712718680000.0,-0.9192540060161408,11.086323422597212,0.4100953128980191,0.16401732,0.38973203,0.5726862,279.7889,-125.8641,13.544374
4712723601000.0,-0.992710928697078,11.280322798052078,0.2679564343776585,0.1704314,0.34116822,0.5714644,279.00388,-125.61398,13.800713
4712728628000.0,-1.1410334330053669,11.500414670244483,0.0670033873607632,0.16310102,0.2779437,0.5742133,278.22754,-125.365875,14.049295
4712733593000.0,-1.2953909765974636,11.718450867032878,-0.1045023844313757,0.1554652,0.19333886,0.5503896,277.50854,-125.08801,14.246002
4712738589000.0,-1.461589036990064,11.938759574682932,-0.2397799017662169,0.15332718,0.10629055,0.52442783,276.80804,-124.809845,14.423987
4712744179000.0,-1.6378747546206431,12.188017435142209,-0.385480808469913,0.16920967,0.0061086523,0.47952923,276.18896,-124.49974,14.513846
4712748660000.0,-1.6414964645370915,12.427050743438263,-0.4216979416701831,0.18448131,-0.049785517,0.4352415,275.57813,-124.18837,14.586586
4712753599000.0,-1.6454883469913073,12.6905154856106,-0.4616168037268968,0.18051068,-0.16798794,0.4196644,275.0686,-123.83363,14.563726
4712759607000.0,-1.4320317944733747,13.17217808642701,-0.2387131415975139,0.22174409,-0.31948254,0.3436117,274.56763,-123.486084,14.501901
4712763726000.0,-1.20342155153704,13.563134704686712,0.0164026622224088,0.26358834,-0.36346483,0.32559118,274.0775,-123.148575,14.449337
4712768640000.0,-0.9658952107782972,13.958677661857346,0.3298909166896972,0.2770274,-0.441961,0.28344148,273.60547,-122.78651,14.339073
4712773594000.0,-0.8646644187421256,14.079190431619589,0.681788471172526,0.2779437,-0.4990769,0.25992316,273.14227,-122.43887,14.228378
4712778635000.0,-0.7775581655902605,14.20352831773276,1.0748864394970563,0.28252518,-0.514654,0.24556783,272.52652,-122.06479,14.199005
4712783631000.0,-0.7441363315098294,14.332441171140603,1.5809883189502043,0.2519819,-0.4813618,0.24007004,271.91812,-121.68942,14.165156
4712788788000.0,-0.7314116071821732,14.456358387961648,2.027618466574929,0.2125811,-0.40408736,0.2565634,271.2326,-121.29311,14.180254
4712793690000.0,-0.7814245842240767,14.548048940163351,2.236005820143821,0.16157386,-0.3652974,0.26542094,270.55646,-120.894485,14.189064
4712799024000.0,-0.8377362922175949,14.654214780583027,2.4516625,0.08124508,-0.29718593,0.2947425,269.8911,-120.37957,14.184756
4712803605000.0,-0.917668462519521,14.852141722540344,2.4516625,0.01038471,-0.22937989,0.30451632,269.2256,-119.86865,14.1808815
4712808602000.0,-1.0048592625629014,15.068042383741108,2.4516625,-0.046731193,-0.18600847,0.31948254,268.56488,-119.30876,14.172055
4712813886000.0,-1.0101671985391234,15.223655521512908,2.406853504152491,-0.08460484,-0.12858713,0.33322698,267.89505,-118.75493,14.173199
4712818657000.0,-0.9781643578747248,15.333379928557134,2.347419609465679,-0.109650314,-0.10323623,0.34300083,267.2343,-118.208725,14.175538
4712823604000.0,-0.8940117426554521,15.240206528086512,2.327164,-0.13988814,-0.09315695,0.35033122,266.5561,-117.65239,14.168018
4712828660000.0,-0.7824999844097327,15.041424777410633,2.327164,-0.18020524,-0.07574729,0.35521814,265.88055,-117.105774,14.163301
4712833615000.0,-0.7022383865362787,14.751566138828254,2.357931399371344,-0.22235495,-0.073303826,0.3472769,265.20813,-116.57448,14.161212
4712838604000.0,-0.6354909157827644,14.41365667772636,2.4038203546668995,-0.28099802,-0.06627888,0.3268129,264.5387,-116.044525,14.156035
4712843692000.0,-0.5766885319818913,14.03736039949698,2.472347178772636,-0.3475823,-0.06841691,0.30634892,263.89185,-115.53346,14.16344
4712848607000.0,-0.5340697956136821,13.625380055935612,2.5717908804828973,-0.43310347,-0.086437434,0.2932153,263.25427,-115.016556,14.162057
4712853612000.0,-0.501848151332652,13.212805243127235,2.719460859887583,-0.46395215,-0.111177474,0.2556471,262.65186,-114.51458,14.154035
4712859676000.0,-0.4840432371824221,12.726136552682677,2.9865346650996423,-0.5564982,-0.1441642,0.21197024,262.06146,-113.98823,14.133541
4712863605000.0,-0.498739365879973,12.468509643483287,3.2257601107022444,-0.65484756,-0.19058995,0.17256944,261.50345,-113.46832,14.107428
4712868613000.0,-0.544939769925826,12.2005471504672,3.5999835740294768,-0.7528914,-0.28527406,0.11301007,260.96768,-112.928345,14.052161
4712873582000.0,-0.596663917163833,11.994737026197836,3.962253656004637,-0.87017757,-0.40500367,0.054367006,260.48447,-112.34907,13.975354
4712878692000.0,-0.6609558126043277,11.896408226352396,4.317750077102009,-0.98532563,-0.5681047,-0.018936822,260.03885,-111.74792,13.863482
4712883642000.0,-0.7232346545672333,11.801158214760433,4.662115494799073,-1.1129965,-0.75625116,-0.08979719,259.6546,-111.07033,13.70926
4712888663000.0,-0.959187731747484,11.997833839341263,5.105593044281793,-1.2666291,-0.9645562,-0.15393804,259.3234,-110.3654,13.521831
4712893664000.0,-1.2440079506404391,12.2782723494968,5.574450978270814,-1.4040737,-1.1533136,-0.22540927,259.04062,-109.638535,13.301061
4712898629000.0,-1.5291181997361727,12.540448108357674,5.574874798454726,-1.5656476,-1.3332134,-0.2947425,258.8197,-108.81594,13.031701
4712903589000.0,-1.8155651399038917,12.791089110901725,5.252621733722792,-1.7299703,-1.4538593,-0.3631594,258.64008,-107.97245,12.737759
4712908669000.0,-2.2421788815483232,12.962080298224851,4.7729594434714,-1.9214766,-1.4941764,-0.42363504,258.47058,-107.00222,12.370913
4712913696000.0,-2.816661714871795,13.033297123076922,4.127259834871795,-2.0964894,-1.4337007,-0.49632803,258.31546,-106.01834,11.987273
4712918665000.0,-3.3079888948616216,13.062086762337913,3.4553801969131026,-2.2547035,-1.3439035,-0.5879578,258.1382,-105.03935,11.565138
4712923589000.0,-3.700424785823495,13.03927073601703,2.748082856831817,-2.3918428,-1.210735,-0.7058548,257.9355,-104.04736,11.12875
4712928655000.0,-3.9608304256972735,12.99454109056722,2.098142928674397,-2.4959953,-0.9978484,-0.83199847,257.57297,-103.11539,10.662353
4712933639000.0,-3.9757883608900033,12.914765332079808,1.5895728718061215,-2.588847,-0.76144356,-0.9443977,257.16406,-102.172455,10.179309
4712938612000.0,-3.783801950681225,12.833700060488937,1.1806743980771088,-2.6859746,-0.5213735,-1.0531317,256.64194,-101.280235,9.665108
4712943662000.0,-3.3351753510097595,12.749582841433956,0.8862632042419558,-2.7840183,-0.40133846,-1.1371256,256.0849,-100.38373,9.134684
4712948651000.0,-2.7686187085908216,12.634752982777831,0.6483607799047716,-2.8527408,-0.2443461,-1.162782,255.65344,-99.47309,8.555574
4712953647000.0,-2.0076240509066965,12.469951791814406,0.4932535700253267,-2.8771753,-0.1301143,-1.2205088,255.1957,-98.56832,7.9517183
4712958622000.0,-1.196056912153891,12.291498426552025,0.2843733796181871,-2.9174924,-0.059864793,-1.2617421,254.7677,-97.76941,7.4092712
4712963646000.0,-0.2985669261828427,12.09049767030992,-0.0054410902389973,-2.9068022,-0.028710667,-1.2699889,254.31686,-97.02827,6.8656125
4712968619000.0,0.5395207249976002,11.860247631371797,-0.2413250463809158,-2.871983,0.00030543262,-1.2635747,253.83394,-96.47514,6.4359946
4712973608000.0,1.287137724661611,11.57129152342325,-0.3835098797091293,-2.8221974,0.008552114,-1.221425,253.3489,-83.984,6.015698
4712978583000.0,2.026186313805705,11.29141988315907,-0.5110608429956349,-2.7452285,-0.043676864,-1.1746938,252.85275,-84.199585,5.753605
4712983627000.0,2.7568234105877574,11.031528692010964,-0.5993257483047406,-2.6398542,-0.105068825,-1.106277,252.36057,-84.32331,5.507592
4712988601000.0,3.427793412456913,10.808991634144006,-0.6715172065492149,-2.5357015,-0.17256944,-1.0387764,251.785,-84.234245,5.435866
4712993670000.0,3.990214445135963,10.66490031003447,-0.7087020393335887,-2.402533,-0.22235495,-0.93492925,251.23276,-84.09587,5.3861637
4712998620000.0,4.459123151783356,10.520874836195508,-0.7158820980977543,-2.2828035,-0.25350907,-0.8512407,250.72464,-83.834435,5.46305
4713003499000.0,4.622251536195509,10.366563916116249,-0.6144780080581241,-2.162463,-0.2764165,-0.8216137,250.2423,-83.57445,5.5441885
4713008536000.0,4.796978458237232,10.223688116350903,-0.4993448566721581,-2.068695,-0.26206118,-0.81581056,249.94672,-83.25674,5.6825476
4713013495000.0,5.051256902018122,10.29703811913097,-0.2499564198846787,-1.9990565,-0.13530666,-0.77640975,249.6314,-82.94187,5.830637
4713018496000.0,5.251063028438228,10.345866435897436,0.0261446093473193,-1.9459113,0.00580322,-0.69974613,249.38202,-82.60099,6.0006304
4713023488000.0,5.037471173892774,10.211210435897437,0.4811880420745921,-1.9190332,0.087964594,-0.655153,249.11786,-82.271065,6.1659575
4713028513000.0,4.79327254546285,10.074015755379618,0.9286353215732848,-1.8894062,0.08979719,-0.6469063,248.90527,-81.90187,6.354389
4713033488000.0,4.130735707003654,9.914426925700363,1.2187973690255784,-1.8704693,0.05375614,-0.655153,248.68268,-81.53566,6.5445414
4713038497000.0,3.441708080639432,9.753293607854744,1.4934346442668245,-1.8719965,0.04795292,-0.6985244,248.45306,-81.15915,6.6827884
4713043522000.0,2.5299553008880995,9.587088782514307,1.5931576386421946,-1.8771889,0.041233405,-0.7180721,248.236,-80.785675,6.822574
4713048556000.0,1.6364248565721204,9.425602187824282,1.6842591990660671,-1.8567249,-0.03634648,-0.80939645,247.96118,-80.46955,6.8541856
4713053529000.0,0.993950640080422,9.326759727429954,1.6677854700017296,-1.8099937,-0.1282817,-0.9245446,247.69733,-80.16653,6.8711023
4713058561000.0,0.3438540671091319,9.22674459356624,1.651116295529229,-1.7715092,-0.19975294,-1.0375546,247.19075,-79.95138,6.80232
4713063581000.0,-0.2594955453507882,9.016794277957038,1.840510025352632,-1.7391334,-0.23609942,-1.1249083,246.71777,-79.75871,6.7051044
4713068782000.0,-0.8702260174933161,8.764236748317506,2.1022517049045817,-1.7412714,-0.33017266,-1.2034045,246.29858,-79.58159,6.5800223
4713073529000.0,-1.2589758900931736,8.617654975090321,2.2252336044305,-1.7867808,-0.41508293,-1.2522738,245.9403,-79.43457,6.3327823
4713078574000.0,-1.5621503637573684,8.516597168948469,2.280356153156493,-1.8246545,-0.44990227,-1.2797627,245.60287,-79.28233,6.07371
4713083542000.0,-1.8562207669257635,8.431719328939957,2.363221788228005,-1.8380935,-0.528093,-1.2965615,245.3588,-79.09953,5.6971173
4713088526000.0,-2.146573773391912,8.361819248282076,2.476136871251549,-1.8497,-0.64873886,-1.3322971,245.13965,-78.886986,5.3172684
4713093572000.0,-2.2766775346386865,8.353473996048818,2.3883726775572924,-1.8524488,-0.7690793,-1.3487904,244.99615,-78.63028,4.894837
4713098544000.0,-2.3393905681271403,8.370197361050137,2.221138110764773,-1.8777997,-0.8426886,-1.3545936,244.87303,-78.33898,4.476943
4713103556000.0,-2.323849522357019,8.339173570598431,2.030053673850545,-1.8762726,-0.8961393,-1.3515394,244.79678,-78.00609,4.033457
4713109181000.0,-2.19204514627383,8.234828071566929,1.7829204543582424,-1.8823812,-0.94806284,-1.3197744,244.73639,-77.636955,3.6091614
4713113564000.0,-1.938538151138797,8.022190643955616,1.588428156745182,-1.8671097,-1.010982,-1.2980887,244.748,-77.26756,3.176268
4713118561000.0,-1.5053530654175589,7.654216602783726,1.3648487874732331,-1.840537,-1.0931433,-1.25319,244.77216,-76.877785,2.7719862
4713123553000.0,-1.1298354299276112,7.405839871334023,1.1834388135677352,-1.8188512,-1.1450669,-1.2205088,244.8579,-76.48905,2.3989067
4713128623000.0,-0.8285671167942088,7.3204804705067215,1.0579103322854189,-1.774869,-1.2421945,-1.2070698,244.9726,-76.10367,2.049251
4713133571000.0,-0.5665800640468511,7.250527162451196,0.9939988973179428,-1.7574593,-1.3200798,-1.1624765,245.12866,-75.71997,1.8213664
4713138657000.0,-0.3309379397895094,7.192650191885928,0.989864827991852,-1.779145,-1.3582588,-1.1743884,245.298,-75.33981,1.5914166
4713143619000.0,-0.1134561525949737,7.122348580450029,0.9837505633498927,-1.777007,-1.4340062,-1.1609493,245.50925,-74.98484,1.4573286
4713148608000.0,0.0308200415195791,6.968764212799532,0.9651342697350476,-1.7614299,-1.5247196,-1.1160508,245.72774,-74.63232,1.3373307
4713153572000.0,0.1714165043027067,6.815347113805376,0.942363328130561,-1.7687603,-1.597718,-1.1160508,245.94135,-74.28743,1.2909843
4713158610000.0,0.2798693325952983,6.652667748684087,0.870061455184977,-1.7540996,-1.6569719,-1.0809261,246.16437,-73.959755,1.274545
4713164142000.0,0.3897620159208547,6.4681743574040365,0.7966516243719826,-1.7263051,-1.6594155,-1.040609,246.3724,-73.64168,1.3166108
4713168555000.0,0.3462786924352987,6.2373783342778,0.8234105859540958,-1.6798794,-1.6038266,-1.0036516,246.57298,-73.34188,1.3666061
4713173529000.0,0.2972675773169766,5.977242503996834,0.8535712646102097,-1.6355917,-1.5592335,-0.96791595,246.7812,-73.05697,1.4715056
4713178632000.0,0.2806926063326898,5.749536816360126,0.8882120743826847,-1.57084,-1.5607607,-0.99387777,246.98492,-72.80099,1.5656892
4713183611000.0,0.3097646033208007,5.579949981749822,0.9269747353470176,-1.5121969,-1.5109752,-0.98471475,247.15323,-72.56262,1.6680636
4713188593000.0,0.335968197329773,5.3818710761014685,1.004030370293725,-1.462106,-1.4407257,-0.9673051,247.3518,-72.30804,1.7481046
4713193627000.0,0.3589558147892427,5.147397379935152,1.1281635727446118,-1.4013249,-1.396438,-0.9468411,247.53842,-72.08093,1.8276348
4713198597000.0,0.3990622422152466,4.93773272748879,1.2629246064573991,-1.3231341,-1.3283265,-0.9459248,247.72034,-71.85413,1.9117521
4713203593000.0,0.4705805199013453,4.766088874484304,1.4202647770403587,-1.2403619,-1.2565498,-0.95172805,247.88397,-71.65307,1.9927728
4713210297000.0,0.5698448496689926,4.539224668080157,1.6351407515118983,-1.1542299,-1.2076806,-0.947452,248.0033,-71.4485,2.1105735
4713213748000.0,0.7265479120057255,4.533311349633208,1.8657603870549293,-1.0751228,-1.1878275,-0.9468411,248.10995,-71.27196,2.2166367
4713218662000.0,0.9496829013777064,4.524891167990696,2.1941477788423693,-0.9993755,-1.1756102,-0.9795224,248.22415,-71.07165,2.3150308
4713223614000.0,1.129869374074403,4.539341678069786,2.407499442786114,-0.91415983,-1.1291844,-0.9779953,248.31801,-70.90119,2.4125278
4713228627000.0,1.2577443589452189,4.581966643354346,2.479961839261298,-0.8491027,-1.0638218,-0.90408057,248.39758,-70.75012,2.513272
4713233649000.0,1.379883710074156,4.637534534301041,2.5409271163616283,-0.80909103,-1.0106765,-0.8781188,248.56685,-70.53611,2.5784829
4713238663000.0,1.4783745949431997,4.743601756705585,2.55607963321237,-0.77121735,-0.9828822,-0.8539896,248.71315,-70.34287,2.657498
4713243615000.0,1.575647602895235,4.848357417923635,2.5710447834805934,-0.7486154,-0.956615,-0.8249735,248.90555,-70.13406,2.7301786
4713248641000.0,1.58006404596133,4.898591211962414,2.489642707770148,-0.6976081,-0.9230174,-0.7663304,249.07767,-69.94693,2.8134181
4713254942000.0,1.5255433739248283,4.925851519515721,2.326080634730756,-0.6444628,-0.8313876,-0.66737026,249.21506,-69.7687,2.9063046
4713258646000.0,1.4873250467350243,4.910937958283864,2.291203093524015,-0.56321776,-0.8002335,-0.6227771,249.4011,-69.61098,3.0162482
4713263633000.0,1.4306218609498111,4.864544486681058,2.296357923702105,-0.5299256,-0.75319684,-0.5510005,249.54091,-69.45329,3.1476243
4713268648000.0,1.3557626091237578,4.810390738038926,2.338636919610741,-0.44837508,-0.6942484,-0.50426924,249.6735,-69.35486,3.291625
4713273666000.0,1.268939876693767,4.751193420473023,2.4057272952697706,-0.36957347,-0.65270954,-0.45540005,249.78676,-69.26466,3.448246
4713278651000.0,1.0966361900282895,4.701484295400621,2.516567695163351,-0.29810223,-0.6053675,-0.41263947,249.88898,-69.18427,3.5904267
4713283640000.0,0.4949333832469428,4.697124133400256,2.84794028036138,-0.20647246,-0.571159,-0.38056904,249.9765,-69.13187,3.7355454
4713289061000.0,-0.1373247583640502,4.698848219582936,3.190880390689478,-0.11911872,-0.5149594,-0.35888332,250.04669,-69.06805,3.856346
4713293667000.0,-0.3446152569072618,4.799254487649607,3.220030563727146,-0.031154128,-0.46120325,-0.3381139,250.10239,-69.02982,3.9779737
4713298614000.0,-0.5672522730369336,4.9070942201997205,3.251338836852926,0.05375614,-0.36987892,-0.32834008,250.04172,-68.94089,3.9855118
4713303500000.0,-0.7611068623138922,5.021501553554237,3.3214686998096945,0.15424347,-0.23945917,-0.33292156,249.95494,-68.88058,3.982719
4713308565000.0,-0.8697076235083399,5.168112693148999,3.5332402450912346,0.25686884,-0.03573562,-0.32406402,249.82199,-68.84245,3.9672675
4713313476000.0,-0.8118215243370006,5.307647175854083,3.761921706658946,0.3662137,0.14752395,-0.3191771,249.68712,-68.81642,3.8557541
4713318484000.0,-0.5387392812642346,5.446502312854662,4.025747032426173,0.46639562,0.33658674,-0.29840767,249.49521,-68.81237,3.7326927
4713323844000.0,-0.2292217096984828,5.527470696946418,4.341223513155367,0.5543602,0.49205196,-0.25411993,249.26738,-68.79652,3.570721
4713328493000.0,0.0614960813654696,5.510369751776454,4.657592739830997,0.61178154,0.58032197,-0.22937989,249.01047,-68.79582,3.4018388
4713333489000.0,0.3183264637290672,5.458619438067172,4.9939100121620354,0.6640105,0.62125,-0.2049453,248.7384,-68.76642,3.2964454
4713338483000.0,0.4301858031247076,5.319914019805407,5.320539290672654,0.68325275,0.66828656,-0.16310102,248.4416,-68.73794,3.194774
4713343511000.0,0.5155254607776872,5.166609483794788,5.643028161441368,0.72295904,0.6637051,-0.13927728,248.16101,-68.67081,3.0948496
4713348496000.0,0.4377723799653908,4.933350251506515,5.92488312632329,0.752586,0.6969972,-0.0983493,247.85571,-68.601555,3.0038362
4713353516000.0,0.2924096251902275,4.735702523200299,6.203648313129429,0.79137594,0.70188415,-0.065973446,247.5459,-68.47531,2.8989666
4713358565000.0,-0.1629879053487505,4.708649224132786,6.460654842596046,0.83260936,0.6826419,-0.01282817,247.23161,-68.35481,2.8120763
4713363699000.0,-0.6440197615319501,4.706417924672241,6.706242487870341,0.89461213,0.63255095,0.007941248,246.9043,-68.1814,2.689822
4713368513000.0,-1.3198316929699598,5.020527722359864,6.73955708733354,0.9627236,0.61086524,0.03390302,246.57364,-68.01911,2.5848107
4713373546000.0,-2.0150435161945395,5.360841720989761,6.738210289163823,1.0128145,0.66981375,0.07086037,246.20154,-67.791916,2.4134483
4713378565000.0,-2.6097166906740616,5.803770612201365,6.422418192278157,1.0662653,0.73914695,0.069027774,245.83981,-67.58646,2.2435682
4713383515000.0,-3.196214441953925,6.240610223976109,6.110967528882253,1.1435398,0.86193085,0.064446285,245.45346,-67.37489,2.0016522
4713388513000.0,-3.4325556676111333,6.988392843061674,6.32218815268322,1.2388347,0.91996306,0.06566802,245.07083,-67.18482,1.767431
4713393531000.0,-3.5528410162094515,7.840013207599118,6.707101609831798,1.2974777,0.9254609,0.06658431,244.67645,-67.00683,1.5313468
4713398521000.0,-3.390139015953136,8.868340654730444,7.227410045454546,1.3112222,0.8347474,0.0729984,244.2871,-66.95789,1.1750029
4713403561000.0,-3.1350274197586327,9.965320496168076,7.797159136363635,1.314582,0.7464773,0.07696902,243.90436,-66.918564,0.82874596
4713408590000.0,-3.211934756251287,11.129786291452112,8.119840170339856,1.3362677,0.7104363,0.0106901415,243.54346,-66.88054,0.4565979
4713413604000.0,-3.622388283686921,12.36114671884655,8.194018453347065,1.3839152,0.7086037,-0.07269296,243.20706,-66.84955,0.100263804
4713418551000.0,-3.22818273993241,13.354373515579589,8.675545448225751,1.4327844,0.66339964,-0.05497787,242.91269,-66.81148,-0.16997974
4713423546000.0,-2.187071496911119,14.178856081987158,9.490328193916865,1.4385877,0.627664,0.05681047,242.62428,-66.77987,-0.42330137
4713428858000.0,-1.0798877285569448,15.055663167624198,10.356819874619804,1.3796391,0.6243043,0.18020524,242.34698,-66.83424,-0.7097671
4713433566000.0,-0.5443149693696664,14.646262669899148,10.501780443512413,1.2550226,0.6450737,0.2434298,242.07567,-66.87494,-0.96575433
4713438553000.0,-0.2525334822342902,13.479136373157488,10.270207754072924,1.180497,0.71837753,0.3399465,241.78189,-66.91819,-1.1730934
4713443584000.0,-0.1202445584211618,12.196793425518672,9.634027141908714,1.033584,0.7825184,0.39706242,241.54659,-66.836975,-1.1260853
4713448602000.0,-0.1302147726493775,10.825889359543568,8.646976131120333,0.9633345,0.8622363,0.44623706,241.28638,-66.770645,-1.0710787
4713453558000.0,-0.1210857787503376,9.77808426910957,7.402279858467633,0.9932669,0.98899084,0.52106804,240.97006,-66.66202,-0.9915181
4713458600000.0,-0.0993489164400828,8.912957508688216,5.958952317277393,1.1001683,1.1777482,0.6081163,240.61813,-66.565865,-0.91894406
4713463850000.0,-0.0317820857175351,8.095473349338297,4.499841359532671,1.2479976,1.4749341,0.73456544,240.20665,-66.54732,-0.8555368
4713468556000.0,0.0847099862448304,7.466415926220017,3.2463868253928867,1.4556919,1.7482964,0.8622363,239.75113,-66.57699,-0.7930357
4713473549000.0,0.2582914308291407,7.051386880841216,2.2539714809720266,1.7229455,1.9443841,0.981355,239.28377,-66.83306,-0.7074395
4713478583000.0,0.4959924330106661,6.949515193539948,1.6766976576071646,1.953547,2.0329595,1.0968086,238.77286,-67.128456,-0.61015916
4713483570000.0,0.6787789145014691,7.083644198432909,1.293713116317336,2.1664336,2.0748038,1.2098186,238.27324,-67.63876,-0.4698557
4713488558000.0,0.8004240551831537,7.490687471302644,1.1299600075612144,2.320677,2.1132884,1.3112222,237.75912,-68.1826,-0.3100733
4713493544000.0,0.8184075274175981,7.98441350234069,1.1006474605235503,2.4269676,2.140472,1.4132367,237.26474,-68.84839,-0.0858794
4713498575000.0,0.6895200269532817,8.605835489443011,1.261756884169294,2.504853,2.164601,1.4834863,236.77646,-69.52962,0.15522648
4713503533000.0,0.5484272171402877,9.317264529976018,1.4991358368904877,2.5130997,2.1691825,1.525636,236.29968,-70.26508,0.4338355
4713508607000.0,0.3736332557913669,10.259209434052757,1.9118437821742609,2.440712,2.1685717,1.5515977,235.83655,-70.97414,0.7261778
4713513742000.0,0.1669918964672488,11.16300575676856,2.279597879694323,2.3130412,2.1126773,1.5635096,235.38513,-71.658005,1.0176339
4713518557000.0,-0.0786720149868995,11.924161377292576,2.537343568122271,2.1713204,2.0384574,1.5525141,234.96074,-72.29019,1.31058
4713523771000.0,-0.3866278944,12.753276468726511,2.803905007707725,2.021964,1.9321668,1.5250251,234.52707,-72.86398,1.5784703
4713528591000.0,-1.1729896864,13.578185557661795,2.900272887791232,1.8823812,1.8729129,1.5048665,234.11908,-73.37513,1.8449905
4713533545000.0,-1.9812129888,14.426027803841336,2.999319874914405,1.7595973,1.7733418,1.4764613,233.70651,-73.84612,2.073871
4713538553000.0,-2.5180331259158155,14.67968830979218,2.8802558189943643,1.7171422,1.6670512,1.4010195,233.33142,-74.281746,2.2866526
4713544360000.0,-2.9538832995068685,14.57194994857344,2.5962187070799576,1.6505579,1.6175711,1.3487904,232.98111,-74.65702,2.4979815
4713548570000.0,-3.1119477984390835,14.41537152017028,2.3909926334076625,1.6077974,1.6187929,1.2663237,232.56642,-75.082085,2.5759106
4713553579000.0,-3.0584638023920534,14.109054365193597,2.147883818933712,1.5760323,1.632232,1.1936307,232.1735,-75.47911,2.6459484
4713558605000.0,-2.9327725534204254,13.695181055168153,1.9386537068143703,1.5378532,1.6737708,1.1487321,231.75836,-75.90521,2.660457
4713563695000.0,-2.696120845767499,13.114308673669344,1.7794516350516374,1.4923438,1.717753,1.1194105,231.34973,-76.31087,2.6608624
4713568636000.0,-2.436964292329149,12.53997547519426,1.6431292544530782,1.4379768,1.7507398,1.0986412,230.93665,-76.72286,2.664023
4713573603000.0,-2.000995392608089,11.90023893843395,1.6146965194859533,1.3909402,1.7806722,1.0974194,230.5195,-77.1128,2.6642625
4713578660000.0,-1.5672858422086269,11.264537305292135,1.601353977118385,1.3710871,1.7773124,1.1050552,230.10251,-77.490166,2.6976697
4713583639000.0,-1.202626034850617,10.734564462730702,1.68401020025492,1.3432927,1.752267,1.1398746,229.68896,-77.83924,2.7387943
4713588618000.0,-0.8556460827437176,10.256064990613083,1.7724546094846974,1.2996159,1.6798794,1.1896601,229.29584,-78.14089,2.8423514
4713593666000.0,-0.5909302855793488,10.024438939571722,1.890631315224406,1.2495248,1.5601498,1.2336423,228.93011,-78.41899,2.957179
4713598598000.0,-0.4011173474604724,9.792550603943004,1.972812841362483,1.1863003,1.3713925,1.258077,228.60976,-78.62246,3.131826
4713603628000.0,-0.7114148564591061,9.515163237165725,1.812962622545384,1.0998629,1.1899655,1.2938126,228.32747,-78.789276,3.324391
4713608843000.0,-1.0546393446590223,9.24287834278817,1.64350028014484,1.0363328,1.0589349,1.3234396,228.09251,-78.889114,3.5595453
4713614626000.0,-1.6180634384515908,9.070986283558929,1.4238604045262524,0.9550878,0.97494096,1.3075571,227.90439,-78.9518,3.7927551
4713618575000.0,-2.002805224096905,8.953607459091302,1.273876335908268,0.9111055,0.9599747,1.2702943,227.66466,-79.04541,4.00108
4713623603000.0,-2.4186795395241245,8.94663080634501,1.181596774884336,0.8723156,0.95356065,1.212262,227.45512,-79.114006,4.197525
4713628754000.0,-2.819245199074686,8.988550345670852,1.121046140052875,0.8527679,0.9618073,1.1462886,227.2544,-79.17389,4.376013
4713633593000.0,-2.9191979990947496,9.133169744719371,1.2140293169583585,0.8127562,0.97066486,1.1279627,226.99644,-79.27926,4.492756
4713638673000.0,-2.8702640381211024,9.343586083484208,1.3950850747535708,0.7965683,0.9682214,1.1071932,226.74759,-79.38838,4.586801
4713643642000.0,-2.9033806891445635,9.424999493939929,1.5574086304848058,0.76083267,0.9080512,1.0760391,226.48615,-79.51453,4.625695
4713648741000.0,-2.980578814702266,9.442154991217285,1.7160938007026172,0.75228053,0.82558435,1.0360274,226.237,-79.64349,4.654273
4713653624000.0,-3.047460139446367,9.416993478002963,1.8470976229362333,0.745561,0.7312057,0.97494096,225.98761,-79.74626,4.672818
4713660935000.0,-3.130524230380623,9.278552844587246,1.9924596013741969,0.75502944,0.5910121,0.8753699,225.78162,-79.85819,4.6723104
4713663765000.0,-3.132136930023002,9.229982306430642,2.049163671727173,0.79779,0.5195409,0.8399397,225.55006,-79.94717,4.6636267
4713668607000.0,-3.108949178447845,9.151143757375737,2.14655232519252,0.8167268,0.36957347,0.7706065,225.3888,-80.04752,4.625256
4713673562000.0,-3.011289015358362,9.01121448015602,2.2280153871379813,0.8680395,0.21135938,0.70096785,225.21812,-80.15162,4.57727
4713678624000.0,-2.765472766894198,8.75121673388591,2.275287655280351,0.97005403,0.12736541,0.63407815,225.07335,-80.27926,4.5126333
4713684359000.0,-2.4315368189848923,8.50445877413113,2.2523576505172285,1.0494665,0.092240654,0.57360244,224.92734,-80.402824,4.441913
4713688616000.0,-2.1190301226687502,8.377028835752027,2.1461661091240605,1.112691,0.0290161,0.50243664,224.8172,-80.554085,4.3539624
4713693594000.0,-1.7535947610850635,8.228016330877427,2.021989108171467,1.0894781,-0.076052725,0.43890667,224.70201,-80.67348,4.299769
4713698616000.0,-1.373551348615869,7.998588512822886,1.6481985004499582,0.9611965,-0.19639318,0.41233405,224.61179,-80.781715,4.2390275
4713703605000.0,-0.9887031404036664,7.719905217665031,1.1173733162299788,0.79290307,-0.3036,0.4111123,224.54956,-80.87389,4.1716437
4713708746000.0,-0.726792870189045,7.458349976248182,0.6326262887445467,0.6533204,-0.32742378,0.44226643,224.49236,-80.93019,4.1911716
4713713641000.0,-0.6261604527837408,7.23760805134686,0.2398352997548645,0.5882632,-0.28710666,0.47219884,224.44815,-80.961395,4.210266
4713718602000.0,-0.5241711937954435,7.01388983082889,-0.1582517475133302,0.6282749,-0.26816985,0.47616947,224.46663,-81.05863,4.299331
4713723591000.0,-0.4092810245386027,6.78048838771862,-0.394442477418108,0.7360926,-0.25320363,0.4615087,224.47557,-81.1511,4.3880258
4713728667000.0,-0.282455185443038,6.53623120886076,-0.5024792982278481,0.8323039,-0.2782491,0.43951756,224.492,-81.246895,4.4744678
4713733657000.0,-0.1755954495381239,6.282447206845859,-0.4661125935885902,0.8717047,-0.39003745,0.41325033,224.5767,-81.43404,4.590139
4713738603000.0,-0.087253481171695,6.017421318025233,-0.2894286460032912,0.9419542,-0.49205196,0.33841935,224.66927,-81.65175,4.68465
4713743639000.0,0.1433138471028759,6.093021054352442,-0.0679785118780158,1.006095,-0.5357288,0.29168814,224.77022,-81.86695,4.8090167
4713748617000.0,0.4400645574348582,6.336862729936305,0.1712623473711639,1.0543534,-0.50335294,0.25992316,224.88097,-82.08934,4.9163284
4713754039000.0,0.7632831897008301,6.602453241188959,0.431841684223123,1.0943651,-0.4810564,0.24831672,224.96362,-82.27213,5.0394816
4713759391000.0,1.0823289513916232,6.86461488195329,0.6890568466782476,1.1227703,-0.47250426,0.2565634,225.04276,-82.44828,5.1578655
4713763620000.0,1.0179710754545457,7.02545846590909,0.7684298965909091,1.0968086,-0.46303585,0.26633725,225.107,-82.60959,5.27242
4713768608000.0,0.7139857771563637,7.181793722272728,0.7727725854272728,1.0375546,-0.41447207,0.2864958,225.15874,-82.74828,5.3902864
4713773605000.0,0.4248030893207392,7.35798418560958,0.7709463298028285,0.9798279,-0.32162055,0.2782491,225.1174,-82.736206,5.6058097
4713778648000.0,0.1655501313235263,7.577352134695984,0.7559893863218747,0.9569204,-0.2049453,0.267559,225.06313,-82.704445,5.819435
4713783627000.0,-0.0596681334567843,7.797616765241636,0.7071750689126394,0.9401216,-0.086437434,0.25442538,224.96234,-82.6947,5.971836
4713788629000.0,-0.2377468954952602,8.024666842639405,0.6047798056226765,0.9236283,-0.009468411,0.23273966,224.84787,-82.67936,6.1127167
4713793645000.0,-0.38080965199347,8.237451764556504,0.5382181266905496,0.89369583,0.028710667,0.21044308,224.69186,-82.69606,6.2025785
4713798619000.0,-0.4110513735026301,8.401621733720297,0.585740817096862,0.88422745,0.056505036,0.19058995,224.52434,-82.713394,6.282178
4713803799000.0,-0.4402571427613824,8.568013004962133,0.6425556128475669,0.8555168,0.08307768,0.18051068,224.34802,-82.76831,6.318702
4713809721000.0,-0.4353199259423696,8.681568785583703,0.8301699911656656,0.8185594,0.07360926,0.16646078,224.1798,-82.82153,6.3467865
4713813660000.0,-0.4320359514320536,8.757100062157221,0.9549611151432054,0.75961095,0.03268129,0.14172074,223.99168,-82.87323,6.361151
4713818654000.0,-0.4437422020392695,8.82284689720638,1.0266740595538872,0.7031059,0.01740966,0.13775012,223.80438,-82.91573,6.3753304
4713823733000.0,-0.4612981891864578,8.8790260707428,1.0688084213744315,0.6533204,0.02107485,0.13622294,223.62874,-82.95515,6.3819337
4713828942000.0,-0.4841619930064795,8.940371776673867,1.1116856735896328,0.5705481,0.05955936,0.13836098,223.42398,-82.97608,6.38078
4713833643000.0,-0.6708563495248381,9.123176710583154,1.1389119567602592,0.5213735,0.07696902,0.14110987,223.22964,-82.99582,6.3777075
4713838567000.0,-0.8664068731360691,9.314653310151188,1.1674297653822894,0.5002986,0.083383106,0.13775012,223.02202,-83.01941,6.3606067
4713843655000.0,-1.0067440070847138,9.500943090866066,1.1482877426691906,0.47342056,0.09285152,0.129198,222.81393,-83.03848,6.340596
4713848631000.0,-1.1104871545338382,9.676855170373877,1.1031820100047325,0.45875978,0.10995574,0.13194689,222.6069,-83.05573,6.320854
4713853605000.0,-1.2002246780823158,9.841628108095884,1.0246360546901854,0.44135013,0.11575896,0.13805555,222.38094,-83.111046,6.253577
4713858776000.0,-1.2808570095703302,10.002892677521483,0.9126467417819992,0.4343252,0.13805555,0.15424347,222.15002,-83.162506,6.1888895
4713863586000.0,-1.3131642147425744,10.142557122178218,0.8352540079712871,0.42760566,0.18387043,0.16737708,221.90997,-83.22686,6.1082106
4713868606000.0,-1.2560447163267328,10.266316524158416,0.8114542227633663,0.42638394,0.2171626,0.17562376,221.67162,-83.28763,6.0304213
4713873561000.0,-1.1558573171290614,10.366574844884822,0.7990887219987929,0.43890667,0.22968534,0.18417588,221.44333,-83.376915,5.9348335
4713878679000.0,-0.9438458068866312,10.415879806558696,0.8138802053525802,0.462425,0.2012801,0.2049453,221.221,-83.460754,5.845914
4713883591000.0,-0.753566909571114,10.46134432034346,0.807948485669749,0.46975538,0.118507855,0.23304509,221.01382,-83.53338,5.772794
4713888609000.0,-0.5885118485160722,10.50366588044914,0.7571623218758257,0.46395215,0.042455133,0.25717425,220.81686,-83.60177,5.7052636
4713893880000.0,-0.4276359415136953,10.551074152370656,0.7097904853916387,0.46273044,-0.019547688,0.30390546,220.64407,-83.63373,5.685661
4713898620000.0,-0.3949155689043729,10.62015056034759,0.7206972686689092,0.4541783,-0.07544186,0.34025195,220.49522,-83.66009,5.670571
4713903838000.0,-0.358895546905334,10.696192901449624,0.7327039343104277,0.4474588,-0.09437868,0.3912592,220.36713,-83.65653,5.700662
4713908641000.0,-0.3853670225536151,10.790509312460411,0.7923462101800742,0.4343252,-0.09437868,0.44501534,220.25266,-83.64088,5.7411165
4713913630000.0,-0.458866039592797,10.907242702832324,0.89178608597412,0.42241332,-0.057726767,0.4990769,220.1358,-83.61153,5.794332
4713918603000.0,-0.5522446506755947,11.024484381571058,0.9959726196282233,0.39095375,-0.019242255,0.5479461,220.02126,-83.57139,5.8583302
4713923592000.0,-0.6859447948630821,11.143859394563265,1.1105727318209075,0.37140608,0.0012217305,0.5564982,219.90501,-83.52854,5.9236956
4713928613000.0,-0.7849307800882409,11.23936612708613,1.1982683767696145,0.34238997,0.030543262,0.5693264,219.75928,-83.47988,5.9815564
4713933635000.0,-0.8126085220410512,11.285496178687897,1.2305590757145597,0.28191432,0.016798794,0.5873469,219.62424,-83.4237,6.0413175
4713939369000.0,-0.8001842673384741,11.368565487235156,1.2445188582241522,0.22876903,0.00061086525,0.6041457,219.45712,-83.376915,6.0782824
4713943650000.0,-0.7295874908647151,11.472925799505878,1.2230328983828704,0.22204952,-0.003970624,0.6374379,219.29482,-83.32182,6.123072
4713948605000.0,-0.6478759684569888,11.593716583738864,1.198164192236281,0.23151793,0.020463986,0.6627888,219.12712,-83.26832,6.1605105
4713953591000.0,-0.5824526797066751,11.695443394640876,1.2353944340415413,0.269697,0.049785517,0.70341134,218.96309,-83.207245,6.2096868
4713959884000.0,-0.5155638419097828,11.805332425162518,1.3405053943079115,0.31520647,0.081855945,0.7464773,218.79533,-83.14356,6.264163
4713963807000.0,-0.4768293061920431,11.871361931498654,1.4146372241399938,0.37843102,0.08857546,0.75502944,218.63782,-83.07996,6.3322845
4713968600000.0,-0.4562332955690996,11.929717029090638,1.5828379745737362,0.39095375,0.07452556,0.7834347,218.48122,-83.00201,6.415397
4713973598000.0,-0.4347563790046366,11.990568015480108,1.7582327900688004,0.4111123,0.03359759,0.8060367,218.32454,-82.92126,6.504457
4713978622000.0,-0.4466296069812362,12.055402463852095,1.8657939607064016,0.44104472,0.01038471,0.8179486,218.17186,-82.84112,6.595509
4713983667000.0,-0.5132893608903606,12.126506244665196,1.8613499802060336,0.4831944,-0.021685716,0.8362745,218.03807,-82.759384,6.6926017
4713988563000.0,-0.5881617820345032,12.199245055324212,1.8084497682926828,0.52534413,-0.03145956,0.86284715,217.89198,-82.67221,6.7859545
4713993602000.0,-0.7070934016996686,12.28946914897595,1.5541821794425088,0.56779927,-0.030848695,0.8775079,217.75706,-82.59045,6.87884
4713998701000.0,-0.827441154958783,12.380767552137334,1.296886994773519,0.6389651,-0.027183503,0.8793405,217.61105,-82.52113,6.966052
4714003623000.0,-0.9803504059619486,12.503132427997375,1.00909103543546,0.68386364,-0.04184427,0.88178396,217.47517,-82.45115,7.055449
4714008604000.0,-1.140739545464983,12.632226272101033,0.7117843607347876,0.71959925,-0.09010262,0.87964594,217.35318,-82.38935,7.1422
4714013640000.0,-1.2889195838921357,12.741352958781912,0.4025224451389316,0.72265357,-0.12492194,0.86498517,217.24399,-82.35194,7.216025
4714018651000.0,-1.4168518576438018,12.820080069209476,0.0826916528637342,0.6844745,-0.14935656,0.8426886,217.15001,-82.31556,7.2859664
4714023617000.0,-1.560951780918728,12.865576554770318,-0.1058186383038869,0.6252206,-0.16035213,0.82527894,217.06883,-82.30571,7.338703
4714028685000.0,-1.7281669040636043,12.8741518614841,-0.1486943078056537,0.5839872,-0.2049453,0.77274454,217.00783,-82.30707,7.3749075
4714033643000.0,-1.875817186749734,12.880805,-0.1931572531773286,0.50579643,-0.27366763,0.68600166,216.9776,-82.331505,7.3876452
4714038806000.0,-1.9659768882008808,12.880805,-0.2495070361837106,0.4156938,-0.34269542,0.57910025,216.96228,-82.369415,7.379722
4714043643000.0,-2.050443763257864,12.880805,-0.3022988046132806,0.37812558,-0.40561453,0.45845437,216.95131,-82.45627,7.3191986
4714048596000.0,-2.058265817323929,12.875445228667925,-0.2746946365054137,0.36774087,-0.5009095,0.32345316,216.97066,-82.56945,7.2263846
4714053539000.0,-2.006540344491904,12.866040418694745,-0.1853507388576537,0.36102137,-0.6261369,0.1863139,217.01723,-82.711235,7.1015024
4714058516000.0,-1.8333023801541024,12.78710284298209,0.0187567384006664,0.3585779,-0.75991637,0.070249505,217.08537,-82.89291,6.936555
4714063502000.0,-1.5548770069137858,12.647890441899207,0.3220415579758435,0.30757064,-0.8729264,-0.03481932,217.18242,-83.10142,6.7404633
4714068483000.0,-1.0009209311143938,12.37895776438002,0.8830282539377712,0.22999077,-0.95539325,-0.1386664,217.29134,-83.32579,6.5244684
4714073481000.0,-0.2673256490536424,12.02541767482227,1.6122042445018925,0.12522738,-1.0057896,-0.22907446,217.42043,-83.56485,6.288573
4714078525000.0,0.3513775724948985,11.873517183975942,2.3161379702502414,0.028099801,-0.99296147,-0.30543262,217.52266,-83.77002,6.074344
4714083486000.0,0.810613788647836,11.975569605412952,2.9692738936956284,-0.07422013,-0.96791595,-0.35002577,217.63167,-83.97697,5.8501396
4714088485000.0,1.101802198485141,12.034931624951756,3.3695075416055578,-0.16554448,-0.96974856,-0.35185838,217.72151,-84.06258,5.7204967
4714093522000.0,1.269361230586646,12.062858203203396,3.583610757390969,-0.28863382,-0.9434814,-0.36713,217.79507,-84.14389,5.5784054
4714098488000.0,1.338029679476514,12.08619304504413,3.70429076873288,-0.419359,-0.83108217,-0.39614612,217.8434,-84.15442,5.4695263
4714103501000.0,1.313677189672314,12.105674935172974,3.73838425445876,-0.58246,-0.7623598,-0.41722095,217.89815,-84.13325,5.3630905
4714108547000.0,1.2202581399790735,12.11466,3.6644489676210408,-0.7788532,-0.6783658,-0.43401974,217.93393,-84.06384,5.259474
4714113513000.0,1.070973604622848,12.11466,3.5015931709883,-0.9993755,-0.60139686,-0.4578435,217.95506,-83.95064,5.151492
4714118502000.0,0.8346993112211221,12.106568752475248,3.2778596356435643,-1.2156218,-0.5696318,-0.4636467,217.96245,-83.782845,5.04232
4714123501000.0,0.4861665758784702,12.08798044991264,2.975797899330227,-1.320996,-0.50640726,-0.4978552,217.94286,-83.58005,4.9203763
4714128542000.0,0.1163453087220882,12.070588326554146,2.63120224961736,-1.5118915,-0.49938235,-0.5467244,217.91507,-83.32031,4.7846923
4714133506000.0,-0.2773649660446587,12.055637522486633,2.2275246593877767,-1.6893479,-0.52564955,-0.61666846,217.8828,-83.02581,4.635909
4714138501000.0,-0.5970266801162347,12.071048390243902,1.862057513795732,-1.8585575,-0.6026186,-0.6957755,217.81357,-82.72731,4.44613
4714143545000.0,-0.8317423913014481,12.121672926829268,1.539898733155488,-1.9734001,-0.7104363,-0.795652,217.76526,-82.39491,4.2347145
4714148493000.0,-0.990959278339714,12.191810897844046,1.2489406868829338,-2.0690005,-0.7968737,-0.9007208,217.7389,-82.07101,3.9613962
4714153549000.0,-1.0299843551077976,12.299130431996776,0.9952778152327222,-2.1325307,-0.84421575,-0.981355,217.7333,-81.71478,3.673632
4714158598000.0,-1.0251445538948143,12.40186867756528,0.797472223964693,-2.1896465,-0.8707884,-1.054048,217.74927,-81.36583,3.3424997
4714163599000.0,-0.9546868461934536,12.49698644685546,0.6847399357852152,-2.250122,-0.8344419,-1.1032226,217.75931,-80.9851,3.0009327
4714168535000.0,-0.8851449055388011,12.590867932401618,0.5734728743067304,-2.3188446,-0.7370089,-1.1582005,217.77841,-80.59969,2.6430936
4714173553000.0,-0.8048178273137498,12.682180890594584,0.4106926702813661,-2.3906212,-0.59742624,-1.2189816,217.77325,-80.185905,2.272877
4714178596000.0,-0.7193536128118918,12.77191813510883,0.2226713537568572,-2.4700336,-0.42760566,-1.280679,217.73091,-79.74153,1.8873976
4714183557000.0,-0.5843306536101642,12.880707983162896,0.0657526273649416,-2.5540276,-0.21380283,-1.3261884,217.66245,-79.27652,1.5078748
4714188549000.0,-0.3769231861171367,13.018979834417932,-0.0527659195950831,-2.620001,-0.019242255,-1.3631458,217.55191,-78.78913,1.1113706
4714193559000.0,0.0020344470313853,13.108286020723662,-0.0981305201268741,-2.6606236,0.13927728,-1.3866642,217.44118,-78.29272,0.7193317
4714198589000.0,0.5701911303791564,13.143594897914308,-0.0628213503267808,-2.6774223,0.27183503,-1.4037683,217.2838,-77.78188,0.3145762
4714203792000.0,1.1578887891184113,13.18011817585127,-0.0262977697164656,-2.649017,0.3747658,-1.4101825,217.12944,-77.282166,-0.06246551
4714208654000.0,1.665398065802684,13.11897675637742,0.1120832699347403,-2.5934284,0.42455134,-1.4031575,216.95287,-76.787056,-0.44077176
4714213816000.0,2.1617280412355293,12.95691026380494,0.365312833296486,-2.4953845,0.4288274,-1.3710871,216.75917,-76.31484,-0.8129443
4714218608000.0,2.532025465267929,12.802426445500403,0.6040039179706119,-2.3906212,0.4120286,-1.3545936,216.59793,-75.89301,-1.0486686
4714223594000.0,2.842702071861978,12.63836120242708,0.8553378589662988,-2.3435845,0.35246924,-1.3179418,216.44513,-75.49108,-1.2660939
4714230168000.0,3.236442988129032,12.422016329892474,1.1732459945806453,-2.2580633,0.23762658,-1.2684617,216.36053,-75.107666,-1.3966594
4714233610000.0,3.352228315096774,12.308593917419357,1.263038669935484,-2.1545217,0.19639318,-1.2577715,216.2723,-74.75199,-1.5293705
4714238602000.0,3.520154042064516,12.144095171612904,1.393266745290323,-2.1209242,0.1282817,-1.2406673,216.2645,-74.3629,-1.5705339
4714243683000.0,3.67775601140989,11.971829284429914,1.5208492834491214,-2.0610592,0.052534413,-1.1951579,216.26546,-74.02217,-1.5994418
4714248613000.0,3.291865912676747,11.609092496526358,1.4436713120555782,-2.0137172,-0.05375614,-1.1487321,216.29013,-73.69774,-1.6178733
4714253696000.0,2.893999914327748,11.235098360032694,1.364098162239477,-1.9440787,-0.13408493,-1.1252137,216.37561,-73.363945,-1.5934923
4714259511000.0,2.264249913468249,10.903612084438242,1.2164416280530357,-1.8698585,-0.16432275,-1.1334605,216.47127,-73.05545,-1.5634398
4714264629000.0,1.6229279945917654,10.65991019277739,1.0582488642533148,-1.7996091,-0.15271631,-1.1432343,216.57137,-72.77566,-1.5271701
4714268568000.0,1.101926400807149,10.491255595848948,0.938405604987028,-1.754405,-0.14782938,-1.1988231,216.66081,-72.48463,-1.5769174
4714273596000.0,0.3662487082848084,10.324686608820986,0.7903447019025656,-1.6887369,-0.15821409,-1.2825116,216.75134,-72.2273,-1.6365428
4714278637000.0,-0.3055112408364083,10.175076648216482,0.6955991258126868,-1.6151277,-0.1518,-1.3726143,216.82,-71.954056,-1.8212333
4714283640000.0,-0.6969966677490775,10.099305505535057,0.826094262256194,-1.5460999,-0.18173242,-1.5018122,216.90881,-71.7005,-2.031068
4714288623000.0,-1.0869170919557196,10.023837265682658,0.9560677311544544,-1.4538593,-0.18203785,-1.559539,217.01259,-71.410286,-2.3589427
4714293654000.0,-1.4171774350058344,9.94217840606768,1.3391102528588097,-1.455081,-0.21502456,-1.6203201,217.1413,-71.11035,-2.709591
4714298701000.0,-1.742557629198456,9.859748904855936,1.746920084166592,-1.491733,-0.33658674,-1.6649132,217.29376,-70.82592,-3.0553446
4714303601000.0,-2.085485606643076,9.675263106482229,2.1247155190767253,-1.5183055,-0.47739118,-1.7171422,217.4648,-70.479324,-3.4818442
4714308638000.0,-2.4501636774650155,9.438609987453756,2.504911795335371,-1.5601498,-0.61819565,-1.7669277,217.66867,-70.11622,-3.8988066
4714313650000.0,-2.722049470055866,9.22631672067039,2.7831162934078213,-1.6233743,-0.7483099,-1.813048,217.89696,-69.64998,-4.3697834
4714318626000.0,-2.6397619468867446,9.105305657186388,2.6717861655459627,-1.6783522,-0.8210029,-1.829236,218.14494,-69.17518,-4.8265495
4714323611000.0,-2.4979209228930066,8.969394963638175,2.533577881928671,-1.7046194,-0.93645644,-1.847562,218.42073,-68.58264,-5.347999
4714328660000.0,-2.1510950631799166,8.781531220362622,2.302360642119944,-1.7730364,-1.0604621,-1.8387043,218.71169,-67.96867,-5.8444095
4714333641000.0,-1.781553962231269,8.609196205197055,2.083832777444781,-1.831374,-1.1398746,-1.7986927,219.05124,-67.35351,-6.3045506
4714338604000.0,-1.3204603794317888,8.481572090601992,1.8985719187873535,-1.8997909,-1.1960741,-1.7458528,219.4091,-66.72686,-6.7354827
4714343631000.0,-0.8534207983854483,8.352302208661758,1.7109220424079687,-1.9440787,-1.2092078,-1.6643023,219.80925,-66.13318,-7.0711493
4714348619000.0,-0.6123905993176697,8.106936120652291,1.540349346636627,-1.9755383,-1.2544118,-1.5586227,220.21713,-65.542496,-7.3661947
4714353688000.0,-0.3911798035315073,7.853771743908587,1.3805663847252565,-1.9874501,-1.3494014,-1.486846,220.62875,-64.96131,-7.6316004
4714358648000.0,-0.2155755109554696,7.714086441942531,1.4045124495883046,-1.9850066,-1.4679092,-1.4504995,221.09685,-64.43787,-7.759262
4714363804000.0,-0.0330320164953789,7.568881317560074,1.4294047702402957,-1.971873,-1.5937474,-1.4065173,221.60777,-63.940987,-7.809766
4714368602000.0,0.072327285416481,7.447609546547884,1.383347333518931,-1.9758437,-1.7605137,-1.366811,222.14737,-63.456703,-7.826127
4714373616000.0,0.1525357055374907,7.327296997327394,1.3031389208426132,-1.9895881,-1.9226984,-1.3381003,222.70483,-62.989944,-7.812916
4714378596000.0,0.2003413545826928,7.222568869228683,1.1980993213762547,-2.012801,-2.0460932,-1.3069462,223.30406,-62.529762,-7.7219462
4714383632000.0,0.2177855367221267,7.130986711492902,1.0672679667148928,-2.0137172,-2.1065688,-1.2748758,223.91312,-62.089283,-7.6065674
4714388617000.0,0.2340825964014519,7.016812225154517,0.9853127698518592,-1.990199,-2.1224513,-1.2455542,224.5576,-61.65982,-7.4516015
4714393646000.0,0.248257543118807,6.8467130717649365,1.0136626534190132,-1.949271,-2.1374176,-1.2055426,225.1992,-61.253162,-7.2746425
4714398602000.0,0.2281636781957394,6.662098277581161,1.0663946375757165,-1.8909334,-2.1716259,-1.1731668,225.87119,-60.867165,-7.0804367
4714404332000.0,0.093711651931532,6.393194053460832,1.2083162041720548,-1.8209893,-2.1859813,-1.1362094,226.52449,-60.512802,-6.872717
4714408633000.0,-0.0072094937861566,6.191351633226707,1.3148440676852924,-1.754405,-2.2235496,-1.1395692,227.19762,-60.161892,-6.656119
4714413604000.0,-0.0829576906248027,5.989734869990533,1.4919872473335436,-1.6771306,-2.2153027,-1.146594,227.8469,-59.849163,-6.433891
4714418608000.0,-0.0728762070400757,5.853635017923636,1.7843503818239193,-1.6172657,-2.1972823,-1.1438452,228.49126,-59.563553,-6.2050824
4714423590000.0,-0.12790280544077,5.694929058782045,2.0088276490422188,-1.5180001,-2.1636846,-1.1633929,229.13176,-59.244446,-6.0341096
4714428683000.0,-0.2766486003831125,5.499700142552178,2.14362853041075,-1.3939945,-2.1841488,-1.1023064,229.75803,-58.96661,-5.8356557
4714433850000.0,-0.3929646169216286,5.350338177265239,2.2453025323605558,-1.344209,-2.1664336,-1.0726794,230.36642,-58.651676,-5.6473618
4714438614000.0,-0.4430732412191104,5.293071286985173,2.2810943855024712,-1.294118,-2.0952678,-1.0748174,230.95023,-58.385696,-5.4572897
4714443717000.0,-0.4967475295881384,5.231729359802307,2.319433140032949,-1.2144,-2.038152,-1.058324,231.53188,-58.092556,-5.2947593
4714448609000.0,-0.5383972367965929,5.188533252846959,2.292912376631793,-1.1374311,-1.96271,-1.0323622,232.07855,-57.8246,-5.1436505
4714453578000.0,-0.5780495439625961,5.148880623645959,2.248854308675123,-1.07665,-1.890628,-1.0005972,232.59767,-57.58632,-4.9953704
4714458655000.0,-0.5850851176872995,5.11581423993781,2.1619806577397727,-1.0192287,-1.8310685,-0.97158116,233.11923,-57.34133,-4.8655314
4714463652000.0,-0.5711344803653677,5.087913101253522,2.0503756174327084,-0.94134337,-1.7440202,-0.9251554,233.59918,-57.130966,-4.738996
4714468605000.0,-0.4998204332870452,5.064062556618034,1.929354522394094,-0.8720101,-1.6584991,-0.88178396,234.08936,-56.922832,-4.6255875
4714473858000.0,-0.3760205566180348,5.041955450624011,1.7922903728950603,-0.79290307,-1.5922203,-0.838718,234.5476,-56.74957,-4.511437
4714478624000.0,-0.2467107161495197,5.01965617154971,1.6965043350004323,-0.7125743,-1.5161675,-0.8005389,235.0047,-56.60245,-4.3986473
4714483663000.0,-0.0671594653664446,4.990427006662628,1.6672750393095093,-0.61819565,-1.4468343,-0.75808376,235.43329,-56.490402,-4.2839937
4714488960000.0,0.1297505798465963,4.961722559827421,1.6396631181208057,-0.514654,-1.3729197,-0.6918049,235.86316,-56.4271,-4.130822
4714493677000.0,0.5038036310572648,4.985346905848513,1.6908493313605857,-0.39553526,-1.271516,-0.6230826,236.25708,-56.402317,-3.9834173
4714498601000.0,0.8942715607077485,5.01000797852349,1.7442817913971935,-0.2761111,-1.1976013,-0.57787853,236.65683,-56.420372,-3.7756023
4714503618000.0,1.0558672830585758,5.021078393475973,1.847084150473518,-0.14996742,-1.0894781,-0.4908302,237.00183,-56.482353,-3.5664592
4714508634000.0,1.1022027809891266,5.025290663486496,1.9734536582953348,-0.04153884,-0.98746365,-0.42210788,237.32248,-56.577457,-3.3652902
4714513650000.0,1.0807617446985447,5.0278234,2.1328698244332243,0.07544186,-0.91507614,-0.3417791,237.65561,-56.728714,-3.0415936
4714518615000.0,0.958370881912682,5.0278234,2.339992804088704,0.13072516,-0.7761043,-0.30695978,237.9417,-56.894943,-2.7478342
4714523589000.0,0.8294260495012645,5.066998756985331,2.522456257936267,0.24617869,-0.605062,-0.22235495,238.21605,-57.07817,-2.4456155
4714528628000.0,0.6878511211208903,5.174400619797673,2.664031206707132,0.33964106,-0.46822822,-0.16187929,238.46095,-57.270565,-2.1651626
4714533667000.0,0.5464953781949459,5.26526329228984,2.843839873981433,0.4437936,-0.30207285,-0.108123146,238.65225,-57.443825,-1.9321076
4714538593000.0,0.4086268932851986,5.330142404461062,3.0749722906395047,0.54550266,-0.14508049,-0.054367006,238.80157,-57.642456,-1.711538
4714543643000.0,0.2651733050587006,5.3998851979673255,3.3259763071808512,0.636827,0.003970624,0.00580322,238.92245,-57.828407,-1.533376
4714548614000.0,0.0978639057203647,5.508410230395136,3.7465110085106383,0.73761976,0.14874569,0.07452556,238.99614,-58.04417,-1.3696567
4714553922000.0,-0.0821526015920489,5.624309082752293,4.1972307613455655,0.84574294,0.25381452,0.118507855,239.05324,-58.216396,-1.246244
4714558646000.0,-0.2931381598568807,5.728072609541284,4.660707024220184,0.9443977,0.3735441,0.16798794,239.06006,-58.41213,-1.1339365
4714563663000.0,-0.5172098249319572,5.838271935091743,5.15292980382263,1.0299188,0.44684792,0.20647246,239.04007,-58.54841,-1.0782057
4714568608000.0,-0.8438296941670349,6.1709889599646495,5.884200728767123,1.112691,0.5213735,0.24801129,238.98299,-58.708958,-1.0301315
4714573589000.0,-1.37080796060981,6.925621861458241,7.081495298356165,1.1166617,0.59315014,0.29229903,238.9035,-58.867397,-0.9845279
4714578668000.0,-1.839909661311054,7.72748522964208,8.21605532039747,1.0662653,0.6621779,0.32436943,238.77512,-58.913124,-1.0255803
4714583753000.0,-1.6473129987146529,8.844545500652561,8.514580366126161,1.0036516,0.743423,0.37507126,238.61826,-58.954834,-1.0626144
4714589498000.0,-1.427021104322389,10.1995263943416,9.161400907090464,0.93676186,0.9147707,0.4474588,238.33694,-58.814533,-1.2469648
4714593667000.0,-1.259676199301432,11.440668128187216,10.489701388753057,0.81581056,0.97310835,0.58459806,238.052,-58.649055,-1.3900832
4714598648000.0,-1.0597373717865874,12.923548189661194,12.076716188264058,0.5867361,0.8940013,0.68416905,237.79987,-58.51606,-1.4718236
4714603595000.0,-1.348528025689354,13.959541566492147,12.267208090052357,0.26847526,0.5555819,0.73273283,237.58989,-58.330803,-1.4976177
4714608693000.0,-1.7915948942931936,14.896798190052357,12.049934532984294,0.0290161,0.2855795,0.7180721,237.38208,-58.110752,-1.5102085
4714613629000.0,-2.0234112688803747,15.493842260855685,10.797606999574286,-0.008857546,0.28344148,0.6948592,237.21796,-57.762817,-1.4583602
4714618621000.0,-2.0488515549595574,15.768597509897829,8.426570636866751,0.043676864,0.44073927,0.6585127,237.08661,-57.398586,-1.4004445
4714623739000.0,-1.3513725872887488,15.387159307439012,6.472138421482237,0.3023783,0.6270532,0.6817256,236.93198,-57.249477,-1.3887765
4714628641000.0,-0.2409835783545126,14.61641836123736,4.891466901029588,0.72204274,0.657291,0.7128797,236.78613,-57.174908,-1.3815415
4714633618000.0,0.4190387753409759,13.645316177101703,3.9139706325984713,1.2052372,0.64873886,0.7867944,236.66745,-57.51637,-1.3430781
4714638666000.0,0.5007484825602587,12.4232234957378,3.7114727538212815,1.6230689,0.86070913,0.8555168,236.48714,-57.94911,-1.3362101
4714643856000.0,0.5847566799588477,11.166753405349796,3.503278619341564,1.8365663,1.2250903,0.8894198,236.39761,-58.607113,-1.1625932
4714648647000.0,-0.1252996724053842,10.21915557499849,3.004460484209573,1.8756617,1.5861117,0.84940815,236.26239,-59.31387,-1.0240228
4714653630000.0,-1.12195235077926,9.303157036216575,2.3851531702420474,1.8707749,1.9086485,0.8038987,236.04816,-60.04774,-0.9269432
4714659533000.0,-2.302614755041951,8.21803976260035,1.651504550063379,1.9581286,2.2061398,0.7892379,235.74763,-60.704254,-0.8772577
4714663836000.0,-2.583399117403785,7.725792262279396,1.7072352882947055,2.137723,2.443461,0.78801614,235.39435,-61.370552,-0.86806136
4714668640000.0,-2.3143810930363595,7.476339020773974,2.3626612088985754,2.3512204,2.5677722,0.83169305,234.99939,-62.05626,-0.87090147
4714673687000.0,-1.921432524357176,7.32101438625526,3.1595582858345024,2.4724772,2.5265386,0.8961393,234.40842,-62.813744,-1.0940151
4714678714000.0,-1.435279932454418,7.257994701570827,4.046336455904628,2.430022,2.329229,0.98654735,233.82292,-63.57771,-1.2858807
4714683642000.0,-1.0156027121883853,7.29573637868272,4.506674206798867,2.314874,2.125811,1.0867293,233.2314,-64.24127,-1.421204
4714688643000.0,-0.6764128374950424,7.485682681876771,4.350646831926346,2.1991148,2.0210476,1.1887437,232.66191,-64.883705,-1.5126307
4714693713000.0,-0.3325430785077903,7.678249719907932,4.192466709830029,2.1386392,2.0161607,1.2599095,232.16037,-65.33113,-1.503253
4714698594000.0,-0.1231791609839005,8.014235829447728,3.92526692296719,2.0613647,2.0540345,1.3096951,231.67401,-65.73026,-1.4631017
4714703550000.0,-0.002273686878337,8.468840457978398,3.5673868102710413,1.9721785,2.0885482,1.3652838,231.18947,-66.09844,-1.4004526
4714708528000.0,0.047884032,8.6574335,3.41892,1.9013181,2.1743748,1.3875804,230.77727,-66.46834,-1.270917
4714713495000.0,0.047884032,8.6574335,3.41892,1.8723019,2.24157,1.4245378,230.36153,-66.81367,-1.1261947
4714718482000.0,-0.0031067788429249,9.440292413295346,3.244951376961064,1.8142698,2.2934935,1.4437801,229.94073,-67.217926,-0.9670862
4714723482000.0,-0.0804124350632478,10.627161596581198,2.9812027064957265,1.7589865,2.3313673,1.4709635,229.51108,-67.6021,-0.8030533
4714728541000.0,-0.2831679776012429,11.532730024236148,2.877485814552045,1.7146988,2.329229,1.4950926,229.06932,-67.96507,-0.6347714
4714733488000.0,-0.5775841198839979,12.190259337959606,2.902020475142413,1.6954565,2.302962,1.5238034,228.63078,-68.307106,-0.46143723
4714738481000.0,-0.920845546019877,12.725185099479411,2.8859610060482725,1.6716328,2.2504275,1.5222762,228.19048,-68.7752,-0.2867052
4714743517000.0,-1.2951722125224798,13.186246272030289,2.8448763504117367,1.6612481,2.2003367,1.5317446,227.76295,-69.22639,-0.09933489
4714748486000.0,-1.6631332532035683,13.466994652879157,2.812769519870235,1.6346754,2.1316142,1.5424347,227.31819,-69.70692,0.06394595
4714753555000.0,-2.037160805981346,13.585108416768046,2.7881624643146794,1.6410894,2.0271564,1.5109752,226.90944,-70.178276,0.2273588
4714758594000.0,-2.437753333950796,13.42295230535456,2.8289415982633863,1.6181821,1.9211712,1.4837917,226.4808,-70.67289,0.35756275
4714763621000.0,-2.860423590950313,13.037439847563917,2.9218360962855763,1.5961909,1.820073,1.427592,226.09322,-71.154594,0.48235184
4714768723000.0,-3.204584600405337,12.581638712717448,3.0288490258402296,1.5467108,1.7085901,1.3662001,225.70633,-71.63204,0.5678388
4714773576000.0,-3.451840401486236,12.087126946630638,3.142665194747509,1.5005904,1.6035212,1.2837334,225.3593,-72.091385,0.6429375
4714778615000.0,-3.693631514139554,11.555131491712707,3.2555028022917942,1.4352279,1.4883732,1.2061534,224.99962,-72.496124,0.66111887
4714783611000.0,-3.825802038469409,10.89427938121547,3.3289309167996723,1.3741413,1.3478742,1.1047498,224.69072,-72.880325,0.6636632
4714788583000.0,-3.9301859394330334,10.267143780342897,3.3823473722627737,1.3164146,1.2055426,1.0253373,224.37062,-73.19526,0.6242831
4714793599000.0,-3.893491400373451,9.79419100695977,3.3334212350364965,1.2675453,1.0647382,0.94042706,224.10225,-73.48943,0.5687507
4714799771000.0,-3.843551071290322,9.220363492741935,3.2661852813709675,1.2342533,0.93676186,0.88117313,223.83945,-73.72854,0.49341726
4714803608000.0,-3.727978279580645,9.006998752983872,3.100234690991936,1.1838568,0.88270026,0.8359691,223.60425,-73.94371,0.40486115
4714809325000.0,-3.555778735612903,8.68909251967742,2.85297393383871,1.171945,0.71593404,0.80848014,223.42169,-74.143906,0.3296336
4714813760000.0,-3.345713888136704,8.5070220085206,2.651855431039326,1.1655309,0.6768387,0.8038987,223.22325,-74.326096,0.2424656
4714818605000.0,-2.993806612996255,8.411441681273407,2.417250596067416,1.1438452,0.61575216,0.80909103,223.0803,-74.49535,0.1653608
4714823590000.0,-2.6043790442001247,8.350429949701772,2.118257025718864,1.0925325,0.5503896,0.8481864,222.94322,-74.6834,0.12836498
4714828646000.0,-2.091424371361168,8.449573100062317,1.5665074438796405,1.0231993,0.45631635,0.8744536,222.83345,-74.85483,0.0954468
4714834213000.0,-1.5544623688650665,8.555367553717083,0.9853956086506642,0.9673051,0.33169982,0.8949176,222.7591,-75.05586,0.13258089
4714838596000.0,-1.4696838857841994,8.597756642041482,0.8484457178419949,0.9462303,0.20311269,0.9083566,222.71228,-75.24187,0.18071343
4714843650000.0,-1.3719265384215025,8.646635139050726,0.6905299642150238,0.93218035,0.06841691,0.91446525,222.7396,-75.52757,0.32606646
4714848605000.0,-1.299361891868266,8.71095169018093,0.6208920997153893,0.91629785,-0.026572637,0.9077458,222.7938,-75.79987,0.47594318
4714853612000.0,-1.265243395842651,8.803558796605001,0.6940030841044927,0.915687,-0.12736541,0.893085,222.88907,-76.06585,0.6330125
4714858608000.0,-1.2232970962025316,8.906926411693792,0.7257360611814345,0.91446525,-0.24190263,0.86284715,223.01332,-76.36375,0.81267285
4714863637000.0,-1.1693831242314647,9.027195858262292,0.6967054842073538,0.9108001,-0.3359759,0.8362745,223.1624,-76.65335,0.9921738
4714868622000.0,-1.1171984911417006,9.138245750121456,0.6654446384291498,0.9297369,-0.38912117,0.8035932,223.31848,-76.93299,1.1721065
4714873623000.0,-1.0784182265182187,9.161513965587044,0.6072742617408907,0.9624182,-0.42913285,0.7644979,223.50015,-77.2088,1.345565
4714878585000.0,-1.039940387473684,9.184600725263158,0.5495575232631579,1.0146471,-0.4428773,0.7098254,223.67642,-77.50316,1.5193439
4714883663000.0,-1.0220188400416252,9.209930816125237,0.4970303122703827,1.0497719,-0.4343252,0.66645396,223.85988,-77.7946,1.6839848
4714888604000.0,-1.017736967921455,9.23562213826803,0.4499296742376255,1.0809261,-0.41172317,0.61422503,224.04735,-78.09384,1.8286549
4714893669000.0,-0.9807143063132088,9.269421319338033,0.4031533371437328,1.1279627,-0.32742378,0.56382865,224.20894,-78.41481,1.9678367
4714898655000.0,-0.8977896745632853,9.313322975482684,0.3592520579160282,1.1499538,-0.19425514,0.52931476,224.35262,-78.73017,2.091199
4714903650000.0,-0.8181303552353696,9.32242203838942,0.3693936869969407,1.1420126,-0.15424347,0.48288897,224.4901,-79.05764,2.200837
4714909406000.0,-0.731089444508043,9.284341437580183,0.4564346034047172,1.1511755,-0.051618114,0.44318274,224.57436,-79.38817,2.2909331
4714914523000.0,-0.6545468730892182,9.203508770609318,0.4577821253191901,1.1664472,-0.03176499,0.41599923,224.66208,-79.72001,2.389016
4714918607000.0,-0.5939262368788143,9.112577559139783,0.4161054295175821,1.1887437,-0.005192355,0.37048978,224.72247,-80.05018,2.464409
4714923578000.0,-0.4725426932525418,9.013217606346924,0.3506682894875218,1.1985176,0.034513887,0.35002577,224.75775,-80.35134,2.5523126
4714928632000.0,-0.2587960725480127,8.933684453219676,0.2562221147643011,1.208597,0.05375614,0.3576616,224.79297,-80.64991,2.6345346
4714933578000.0,-0.0905023744344029,8.718431825374976,0.1484623223981393,1.212873,0.01740966,0.34666604,224.82811,-80.945244,2.7223525
4714938613000.0,0.0193572551213214,8.292725538826655,0.0157152720098727,1.215011,-0.0012217305,0.3304781,224.85397,-81.232025,2.808433
4714943621000.0,0.078124882580803,7.955046009738302,-0.0570809316956616,1.2366967,-0.0030543262,0.31764993,224.88495,-81.51571,2.9318216
4714948643000.0,0.0192908473303333,7.816365813128577,0.0080567502514745,1.2605205,-0.035124753,0.30176744,224.93231,-81.78977,3.0504935
4714953607000.0,-0.038863702845559,7.679287259570099,0.0724421451510332,1.2678508,-0.060170226,0.28344148,224.97177,-82.06268,3.1893828
4714958645000.0,-0.0978851822545327,7.540165230394512,0.1377873545595701,1.2901474,-0.049785517,0.26083946,225.01323,-82.33312,3.3212442
4714963692000.0,-0.1570120990026651,7.400794670400629,0.2032492981651448,1.3038919,-0.04550946,0.23945917,225.05531,-82.591576,3.4498677
4714968602000.0,-0.1001317173656669,7.446239295213784,0.2705279793171665,1.3020593,-0.013744468,0.2312125,225.08897,-82.83696,3.5734835
4714973613000.0,0.0004932887490199,7.559989406363387,0.3405279855173671,1.2819008,0.013744468,0.23609942,225.12482,-83.065895,3.693874
4714978626000.0,0.1562621009931168,7.687455687445468,0.2848224933378575,1.2287555,0.025961773,0.26939157,225.12486,-83.24773,3.8006563
4714983654000.0,0.3616616226280174,7.827500720116336,0.116768337145904,1.1673635,0.099571034,0.32375857,225.10097,-83.40502,3.9115205
4714988631000.0,0.4558299989343444,7.936688204390341,0.0063412174446218,1.1044444,0.13988814,0.35338554,225.0755,-83.50602,4.046854
4714993676000.0,0.4269046409419277,8.0138222373179,-0.0418677142207144,1.0512991,0.1572978,0.35094208,225.03812,-83.58009,4.1849456
4714998602000.0,0.4161686767220288,8.097753921631028,-0.0626716537338637,1.0048733,0.15149458,0.36468655,225.00981,-83.625984,4.371641
4715003618000.0,0.4257235805430134,8.193302860069617,-0.0531167509105917,0.9596693,0.15607607,0.37140608,224.97778,-83.649284,4.551873
4715008658000.0,0.4081493163265958,8.268437262123513,-0.0356033479480706,0.9462303,0.16035213,0.36926803,224.94704,-83.66935,4.7257957
4715013725000.0,0.3577511539745945,8.318836039785891,-0.0084658747290884,0.9306532,0.15332718,0.3747658,224.92142,-83.665375,4.9009266
4715019064000.0,0.2968557485412787,8.37094143078833,0.0244279913131595,0.9108001,0.17287487,0.3643811,224.88911,-83.65157,5.067391
4715023596000.0,0.0577536174922408,8.391146949099937,0.1557657824298572,0.89644474,0.18845193,0.3567453,224.86307,-83.62464,5.2333555
4715028651000.0,-0.2089412793420235,8.413684216325263,0.3022601632981067,0.87598073,0.20861048,0.35155296,224.81927,-83.59458,5.382239
4715033696000.0,-0.4092275992522278,8.436523028283611,0.3890758649554436,0.84513205,0.22021692,0.32406402,224.77696,-83.56122,5.519615
4715038599000.0,-0.5001905684908949,8.45926375397133,0.3799795651820999,0.79534656,0.21013765,0.2779437,224.73831,-83.52262,5.647383
4715043601000.0,-0.5679008381192843,8.498427886978131,0.3777993111868787,0.72295904,0.20952678,0.26145032,224.65097,-83.51182,5.710143
4715048610000.0,-0.5774376753717694,8.574722525248509,0.3921045471491053,0.65026605,0.22052236,0.23335053,224.56589,-83.50729,5.75495
4715054397000.0,-0.572794882506794,8.654331211440313,0.3737500041075097,0.58246,0.23609942,0.22235495,224.47003,-83.5125,5.780483
4715058665000.0,-0.5511212107363956,8.703096796115862,0.3195658586286206,0.5329799,0.23304509,0.22693644,224.37796,-83.513336,5.8015957
4715063649000.0,-0.5258115621647776,8.760043298932857,0.2562917768416517,0.48991394,0.23182335,0.23762658,224.27058,-83.508026,5.8190975
4715068565000.0,-0.4448470358686853,8.84575188952181,0.1945336436717133,0.46914452,0.25686884,0.25473082,224.15787,-83.49694,5.8383007
4715073650000.0,-0.2039482175093689,9.017301083795532,0.1324839452734222,0.45570546,0.2910773,0.2779437,224.0441,-83.477806,5.8610053
4715078602000.0,0.0306498057974816,9.184363347324238,0.0720571790062959,0.43310347,0.31703907,0.31429017,223.92862,-83.453705,5.8972526
4715083668000.0,0.244731174827044,9.365962592489826,0.0998026896840547,0.41386122,0.30451632,0.34574974,223.81595,-83.424385,5.93735
4715088753000.0,0.4429104948742138,9.555133810580836,0.1853801205830558,0.39278635,0.267559,0.35827246,223.70453,-83.388664,5.980699
4715093650000.0,0.5566242689291401,9.713600190386146,0.2900224583728105,0.38606682,0.18417588,0.3915646,223.6263,-83.294586,6.096295
4715098601000.0,0.5802184052786624,9.845727539211785,0.4221496051771497,0.36346483,0.14049901,0.42913285,223.54973,-83.19387,6.213543
4715103611000.0,0.4391475472030948,9.961731579110252,0.4919700068433269,0.34269542,0.032986723,0.44440445,223.50012,-83.049164,6.3717
4715108680000.0,0.0776434586479689,10.055628676208896,0.4778854275715667,0.27855456,-0.056199603,0.45204028,223.46085,-82.89381,6.5338397
4715113669000.0,-0.324508169121068,10.091185992110852,0.4436879178881359,0.21471913,-0.10476339,0.45570546,223.42174,-82.722595,6.6994333
4715118612000.0,-0.7985121721250126,10.033730803883888,0.3766570582704561,0.1328632,-0.10293079,0.45173484,223.39647,-82.54846,6.8603244
4715123966000.0,-1.1866116732446077,9.95580367342818,0.3271154197044516,0.08032878,-0.06719518,0.44257188,223.35503,-82.444244,6.946169
4715128635000.0,-1.3795041551170262,9.869617661771455,0.3106990442863699,0.032986723,-0.015577064,0.42149702,223.30977,-82.338974,7.0245223
4715133591000.0,-1.525923098265896,9.797073,0.3108310491329479,-0.011911872,0.025045475,0.4007276,223.23642,-82.31267,7.0157447
4715138665000.0,-1.4470787674678025,9.797073,0.3798197896988135,-0.027183503,0.0421497,0.38637227,223.15565,-82.28855,7.001696
4715143605000.0,-1.338397411496275,9.850817661320365,0.4671755362375828,-0.016798794,0.04520403,0.39095375,223.05023,-82.29681,6.9496517
4715148667000.0,-1.1226952935947847,10.081568700848509,0.6226817057326159,-0.029932396,0.01740966,0.3930918,222.94943,-82.30378,6.893042
4715153619000.0,-0.8956895582639799,10.352684008967254,0.7381648161138539,-0.04917465,-0.03481932,0.40744713,222.84851,-82.29214,6.8524666
4715158663000.0,-0.6280021303264485,10.73231349047859,0.7722341367667506,-0.049480084,-0.076052725,0.45998153,222.75224,-82.27061,6.823462
4715163648000.0,-0.4071500624634553,11.133422288580398,0.7795321603943882,-0.032375857,-0.12186762,0.49877146,222.65926,-82.207405,6.828167
4715168620000.0,-0.2763500248690277,11.58655109128814,0.732817861950358,-0.004581489,-0.16035213,0.5522222,222.57582,-82.13027,6.8514543
4715173593000.0,-0.1884842593142463,12.047961109553324,0.6808370957398662,0.027488936,-0.19150625,0.58368176,222.50888,-82.01777,6.9208207
4715178632000.0,-0.2122236952813852,12.53699372943723,0.6143666670995671,0.046731193,-0.22296582,0.6200282,222.4536,-81.89682,7.005017
4715183615000.0,-0.2684604687705872,12.945507371236069,0.5640414184661454,0.08460484,-0.22724187,0.6585127,222.40302,-81.77502,7.1126556
4715188724000.0,-0.4271851740875062,13.13272107087007,0.559971557278323,0.12980886,-0.22937989,0.68203104,222.36229,-81.65589,7.2239327
4715193687000.0,-0.5813740001763434,13.314584760688737,0.556018000598902,0.16035213,-0.21899518,0.6814202,222.3154,-81.55858,7.3263097
4715198622000.0,-0.8179317686584225,13.260545322248776,0.618570364667983,0.19517145,-0.2049453,0.66614854,222.26984,-81.46886,7.428488
4715203977000.0,-1.0897257925387094,13.159288354567185,0.6985097801828951,0.19364429,-0.24007004,0.6469063,222.23752,-81.381874,7.5276346
4715208686000.0,-1.3386852578605148,13.162514810456932,0.6314004946112051,0.20341812,-0.26389378,0.6426302,222.18971,-81.33214,7.5899777
4715213770000.0,-1.6075626078204328,13.166851629553754,0.5576760643270687,0.20769419,-0.33292156,0.6203337,222.1674,-81.29152,7.6425586
4715218615000.0,-1.76360821267786,13.292134747581104,0.3961981538224246,0.21074851,-0.3753767,0.6105598,222.1187,-81.2754,7.6584187
4715223669000.0,-1.8806856184547525,13.478081389015369,0.1861474877347751,0.19028452,-0.408058,0.6001751,222.08873,-81.26221,7.6695104
4715228706000.0,-1.9973692142003416,13.663402566875355,-0.0231966367376209,0.18997909,-0.48380527,0.59498274,222.07715,-81.29167,7.639374
4715233653000.0,-2.0562364087210563,13.90177000129842,-0.2508652971216187,0.16768251,-0.623388,0.57757306,222.09435,-81.31956,7.606553
4715239749000.0,-2.109105028167669,14.149357833285592,-0.5108480757185143,0.14080444,-0.77671516,0.5488624,222.1378,-81.349464,7.57262
4715243701000.0,-2.116332663725771,14.163813028931536,-0.6156488479136828,0.10720685,-0.8979719,0.5381723,222.2297,-81.415596,7.521455
4715248572000.0,-2.125241017167956,14.18162964279576,-0.7448200425904707,0.076358154,-0.9828822,0.5174029,222.37305,-81.50528,7.4603457
4715253647000.0,-2.058947047517352,14.301669359316604,-0.6302540863107314,0.080634214,-1.0552697,0.462425,222.54625,-81.60306,7.3912816
4715258608000.0,-1.987076645862253,14.428499765527674,-0.4949687155178857,0.11789699,-1.1136073,0.376293,222.73816,-81.71095,7.3114495
4715263631000.0,-1.7179006744312026,14.47347582936078,-0.3040714050541712,0.15057829,-1.1771374,0.26419923,222.95949,-81.84485,7.214935
4715268612000.0,-1.3561297809859156,14.477782712441314,-0.0887315907394366,0.16737708,-1.2324207,0.16310102,223.19301,-81.996376,7.100887
4715273623000.0,-0.994811754160032,14.32052297750796,0.1642887451333598,0.17012598,-1.2229522,0.08002335,223.41197,-82.14915,6.973183
4715278637000.0,-0.6363963334792994,13.97166524482484,0.4605788245660828,0.12767084,-1.1603385,-0.00030543262,223.62921,-82.31797,6.8219147
4715283675000.0,-0.2442517448518482,13.58910544970766,0.7751557297582004,0.07574729,-1.0818423,-0.073303826,223.82231,-82.43208,6.7126374
4715288613000.0,0.177522550936478,13.176703909523338,1.1032024548260826,-0.018325957,-1.0369438,-0.15424347,224.00497,-82.55315,6.5817275
4715293618000.0,0.5931103169841722,12.799710308596342,1.406055200834044,-0.093462385,-1.0155635,-0.20066923,224.13654,-82.6023,6.5018125
4715298615000.0,0.992244685574827,12.477681103971188,1.6691209894701924,-0.16646078,-0.9755518,-0.21135938,224.24834,-82.64723,6.411063
4715303580000.0,1.3499270567230632,12.200626663599486,1.9311540482042149,-0.1966986,-0.929126,-0.22266038,224.3073,-82.59389,6.3922515
4715308662000.0,1.6292207436331256,12.012825971999604,2.200816975541704,-0.27366763,-0.8491027,-0.24007004,224.34598,-82.52766,6.3675375
4715313604000.0,1.871301802076524,11.8888992610075,2.441776469390502,-0.3811799,-0.8005389,-0.26725355,224.34956,-82.36007,6.418495
4715318617000.0,2.046683886589117,11.902745251826572,2.635619714353009,-0.49602258,-0.7495316,-0.28496864,224.33434,-82.18622,6.461949
4715323650000.0,2.205860929265968,11.94334603670162,2.841791828312678,-0.6010914,-0.70616025,-0.31306845,224.30923,-81.95239,6.5322504
4715328632000.0,2.305096549233036,12.075660038348213,3.085746107504983,-0.7150178,-0.6960809,-0.30909783,224.28398,-81.7003,6.601998
4715333610000.0,2.4042524938729524,12.20786780635237,3.3295045181471528,-0.84757555,-0.68569624,-0.32284227,224.25446,-81.40884,6.6753416
4715338598000.0,2.4264595865613043,12.41656893869539,3.487292944725186,-0.9859365,-0.6224717,-0.35796702,224.21223,-81.10529,6.737536
4715344189000.0,2.4229351515674984,12.65110599200256,3.662730340083173,-1.1291844,-0.5983425,-0.3744604,224.18248,-80.780556,6.797717
4715348616000.0,1.9719804818298143,12.654496697296866,3.991622062148112,-1.3066407,-0.66828656,-0.39584067,224.18427,-80.430176,6.830561
4715353652000.0,1.458990258925144,12.658353844769673,4.365757755014395,-1.4947872,-0.7855727,-0.44929138,224.20206,-80.0452,6.8463483
4715359723000.0,0.8964541910520764,12.536402960295389,4.412199263901409,-1.6881261,-0.9315695,-0.5155703,224.2517,-79.62946,6.85535
4715363629000.0,0.5664028850388415,12.385726959336338,4.21129851616956,-1.8952094,-1.056186,-0.58032197,224.33199,-79.18083,6.8534026
4715368704000.0,0.160887246374089,12.182736702186236,3.899880378202429,-2.112372,-1.1239921,-0.64721173,224.3871,-78.69644,6.7321424
4715373589000.0,-0.187615472848583,11.97439283659919,3.5097088621295542,-2.3087652,-1.112691,-0.7031059,224.45784,-78.16877,6.6017337
4715379561000.0,-0.6083988675967485,11.723561363756849,3.0228947131206927,-2.4645357,-1.0748174,-0.7635816,224.49803,-77.63216,6.422426
4715383607000.0,-0.8206590986234317,11.607160753578372,2.5572916646845734,-2.5705209,-0.98471475,-0.8191703,224.52052,-77.06136,6.228442
4715388587000.0,-1.0819186019632443,11.463889612033928,1.984206350494787,-2.6349673,-0.8374963,-0.86590147,224.54861,-76.50939,5.9748793
4715393645000.0,-1.2187796023384976,11.312210403975444,1.4400006656240865,-2.695443,-0.7367035,-0.91232723,224.56349,-75.93094,5.707259
4715398646000.0,-1.2701125308097048,11.158211472376498,0.92667152709734,-2.7397306,-0.54519725,-0.93401295,224.50986,-75.336845,5.4224887
4715403592000.0,-1.182604171454219,11.024252471274686,0.605264507529623,-2.7546968,-0.3399465,-0.96974856,224.54071,-74.790665,5.077562
4715408808000.0,-0.971852487432675,10.89869857540395,0.4259014004847397,-2.7861564,-0.16187929,-1.0118983,224.52568,-74.2222,4.718617
4715413635000.0,-0.7478113505766063,10.810526965403623,0.3337367250411862,-2.8182268,-0.0021380284,-1.0680978,224.53146,-73.68891,4.340454
4715418607000.0,-0.4585468205930808,10.776207264415156,0.3876674028995058,-2.8533516,0.10720685,-1.1304061,224.50462,-73.14302,3.944164
4715423590000.0,-0.1212356970206729,10.742016331526145,0.4723302879002837,-2.8863382,0.1777618,-1.1695015,224.48857,-72.59463,3.577021
4715428652000.0,0.3012501699027157,10.70762802335833,0.6098838283542765,-2.9132164,0.23304509,-1.2089024,224.45114,-72.039444,3.1899235
4715433602000.0,0.7151597543116138,10.621801319903929,0.7554451236693268,-2.905886,0.23548855,-1.2226468,224.43295,-71.47195,2.8520117
4715438663000.0,1.1394960388936235,10.4565726292322,0.9206734222282484,-2.8735101,0.2125811,-1.2360858,224.40938,-70.90804,2.506061
4715443660000.0,1.5584662847059731,10.293433374680406,1.0838122896257845,-2.8118126,0.13897185,-1.2125676,224.41093,-70.34464,2.2458375
4715449155000.0,1.7793451323755771,10.11963287993843,1.1017406370446383,-2.7711902,0.028405234,-1.1798862,224.42763,-69.7921,1.9949015
4715453567000.0,1.922428261816316,9.98088600625962,1.0930689404617753,-2.7156014,-0.10842858,-1.1517864,224.46758,-69.268814,1.763454
4715458645000.0,1.9364400764743184,9.848929088776158,0.9961093760304376,-2.6639833,-0.2706133,-1.1093313,224.53944,-68.74016,1.6635436
4715463823000.0,1.9274558078992663,9.718657288250748,0.883805925029441,-2.598926,-0.4642576,-1.1068878,224.65456,-68.244316,1.5795499
4715468642000.0,1.8381977482084948,9.577552996598907,0.719673964207862,-2.5100453,-0.6936375,-1.1279627,224.84479,-67.764,1.5636976
4715473644000.0,1.7093747850668355,9.422207327058452,0.5226506558253579,-2.4184155,-0.93370754,-1.1606439,225.0854,-67.317314,1.5681819
4715478652000.0,1.5908182087635987,9.276131561820064,0.3197001467682611,-2.2992969,-1.1410962,-1.1997393,225.41754,-66.90448,1.5953915
4715483656000.0,1.5328910112847522,9.18510343576239,0.0838537072966672,-2.1817052,-1.2702943,-1.2220359,225.78694,-66.531105,1.6378547
4715488566000.0,1.476051974589881,9.095785270505958,-0.1475623634078743,-2.1087067,-1.29198,-1.2189816,226.22209,-66.18376,1.6703168
4715493759000.0,1.2148301800947037,8.871321041038232,-0.1235646536776569,-2.0690005,-1.3500122,-1.2253957,226.69678,-65.872505,1.7160718
4715498760000.0,0.9208497761636268,8.627737170904945,-0.0437699698541739,-2.01219,-1.4181237,-1.2562444,227.17474,-65.59807,1.7625401
4715503801000.0,0.5935732517277924,8.492570799385613,0.1562010850800409,-1.9749273,-1.563815,-1.3387111,227.7297,-65.34963,1.809037
4715508651000.0,0.2566811421279972,8.441046326307706,0.4336416567115794,-1.9058995,-1.6276505,-1.3811663,228.27295,-65.13603,1.8591499
4715513614000.0,-0.0126783126531645,8.42383613554041,0.7301779197468354,-1.8527542,-1.6129897,-1.402852,228.83731,-64.88669,1.8402326
4715518791000.0,0.0211146662506329,8.554180342891918,1.092245504050633,-1.8387043,-1.6029104,-1.4159856,229.41656,-64.65549,1.825007
4715523624000.0,0.0513961674132264,8.675696569939879,1.4282299995991985,-1.8429805,-1.6187929,-1.4309518,229.97997,-64.37169,1.7240154
4715528643000.0,0.0754773253899799,8.800918356863727,1.7653662374248498,-1.8695531,-1.6209309,-1.4278975,230.53029,-64.09252,1.6271749
4715533671000.0,0.101665003329069,8.91999298805487,2.0789213009556105,-1.8982637,-1.6194037,-1.430341,231.08165,-63.773163,1.5389942
4715538592000.0,0.1379839500604192,9.003526735511715,2.2605160611590627,-1.919644,-1.6267341,-1.4196508,231.6269,-63.456158,1.462222
4715543670000.0,0.1754616195385326,9.089725550709002,2.44790443594328,-1.9740111,-1.6557503,-1.412015,232.1759,-63.083946,1.4026374
4715548613000.0,0.1477360765734519,9.143121780316346,2.566602049570971,-2.043955,-1.6462818,-1.3891076,232.70596,-62.71024,1.3512372
4715553629000.0,0.0682781858003721,9.172918054481547,2.636127709118164,-2.11451,-1.6184875,-1.361924,233.22948,-62.330475,1.3094269
4715559618000.0,0.0415994043858868,9.16769612166471,2.533957311478436,-2.173764,-1.5778649,-1.3600914,233.75482,-61.909855,1.2856417
4715563628000.0,0.044821672220255,9.151584790904511,2.408288796962577,-2.2094996,-1.4929546,-1.3350459,234.24695,-61.486588,1.2692075
4715568608000.0,0.0606702959388154,9.10339413591124,2.241364878153043,-2.214081,-1.4153748,-1.3402383,234.74948,-61.043842,1.2311064
4715573585000.0,0.1151076232471855,8.963412864251916,2.03916915759504,-2.1923954,-1.3078625,-1.2990049,235.20575,-60.609005,1.1995883
4715578660000.0,0.1706168529216838,8.820675280633056,1.8329920867025613,-2.1456642,-1.237613,-1.2852604,235.6855,-60.201126,1.1674163
4715583668000.0,0.2375427776669407,8.635180665661824,1.822128566867635,-2.1053472,-1.1954633,-1.2819008,236.1345,-59.807835,1.1357913
4715588597000.0,0.3065356795934959,8.441138268292683,1.8609370463414636,-2.0717494,-1.1866057,-1.2760975,236.56564,-59.435863,1.1066277
4715593612000.0,0.5187208784355687,8.169154534618578,1.995039341361498,-2.0598376,-1.1520919,-1.271516,237.01239,-59.086823,1.0996323
4715598683000.0,0.8322970271912186,7.842139164689605,2.196623963647265,-2.0109684,-1.110553,-1.2760975,237.45007,-58.767555,1.0923331
4715603591000.0,1.0283028678015784,7.60081046475761,2.3640978048478014,-1.9706513,-1.1032226,-1.2690725,237.89738,-58.428978,1.1129912
4715608649000.0,1.0829133391882753,7.45518249037204,2.4988036925591883,-1.9285016,-1.1114693,-1.2654073,238.33357,-58.114635,1.1302886
4715615394000.0,1.1476376607152607,7.253106954954955,2.678670083601784,-1.8759671,-1.1530081,-1.2272283,238.7763,-57.770885,1.2563516
4715618635000.0,1.1391641666393666,7.117530961261261,2.766229581372281,-1.7831156,-1.1798862,-1.2137892,239.2127,-57.46225,1.3751088
4715623609000.0,1.1261597977613975,6.909460923423423,2.9006081503048504,-1.7547104,-1.2394456,-1.1979067,239.66824,-57.110107,1.5444827
4715628626000.0,1.0084925479413205,6.709359138396088,3.017896730405868,-1.707063,-1.3084733,-1.1780536,240.12054,-56.801624,1.7199497
4715633685000.0,0.8094841539951101,6.515088986533008,3.122139194200489,-1.6450601,-1.352761,-1.1670581,240.57112,-56.51677,1.8986553
4715638649000.0,0.6274605865478442,6.380637401214776,3.177489680523748,-1.5787812,-1.4046847,-1.1475104,241.03702,-56.204338,2.09632
4715643663000.0,0.455335533221149,6.294574984387135,3.191833474907896,-1.5170839,-1.4563028,-1.1087204,241.49835,-55.919685,2.3030837
4715648613000.0,0.3045245328191268,6.223001275925156,3.17310872993763,-1.4721853,-1.4703526,-1.0858129,241.97095,-55.60425,2.4534104
4715653516000.0,0.1727379170873181,6.164429487484407,3.1242989062370063,-1.4217888,-1.4767667,-1.0684034,242.43883,-55.318333,2.61579
4715658534000.0,0.0489464183740488,6.102996681307569,3.0424081615338405,-1.3854424,-1.4785993,-1.0479393,242.92389,-55.017296,2.7380972
4715663495000.0,-0.0652158672647176,6.041158571285543,2.9377593732078493,-1.3234396,-1.4624114,-1.0317514,243.3953,-54.747406,2.8605628
4715668547000.0,-0.1175357559339311,5.990707868456819,2.9183364320434166,-1.2415836,-1.423316,-1.0054842,243.86983,-54.486515,2.9540055
4715673481000.0,-0.1219955936441717,5.950569417546012,2.962934762576687,-1.1704178,-1.3994923,-0.95722586,244.3303,-54.24786,3.0561485
4715678504000.0,-0.0915641265041412,5.890404154664342,2.959734241434176,-1.0824533,-1.3817772,-0.9315695,244.79982,-54.037598,3.1281717
4715683510000.0,-0.0184188631233652,5.806809628421971,2.897038292197036,-0.99296147,-1.3536774,-0.8472701,245.23727,-53.852505,3.2195787
4715688505000.0,0.0532052174494969,5.68464916157033,2.846864942128625,-0.90469146,-1.2629639,-0.81581056,245.67313,-53.677578,3.2933772
